File: Tables/Table-6 calibrated xrf data.csv
Splice Depth CCSF (m),Section_Label,Offset (cm),Al2O3,SiO2,K2O,TiO2,Fe2O3,CaO,MSE
0.06,U1474F_1H1,5.536,13.3376,42.5685,1.0143,0.800908,5.51071,31.9775,12.27
0.44,U1474F_1H1,43.536,12.4179,46.0125,1.25133,0.878146,6.01088,28.6386,11.65
0.82,U1474F_1H1,81.536,13.189,48.4607,1.85589,0.952545,7.57581,23.1756,12.28
1.2,U1474F_1H1,119.536,12.4675,45.7954,1.26519,0.823982,5.78495,29.0724,11.66
1.59,U1474F_1H2,9.258,13.1441,46.3398,1.63055,0.900939,6.55754,26.6366,11.91
1.97,U1474F_1H2,47.258,13.1711,46.5948,1.54553,0.886617,6.29767,26.7137,12.92
2.35,U1474F_1H2,85.258,13.1583,46.35,1.52659,0.868814,6.34965,26.9561,12.51
2.73,U1474D_1H2,107.883,13.3459,46.8851,1.38509,0.847819,6.30307,26.4425,12.2
3.11,U1474D_1H2,145.883,12.0094,49.1076,1.43012,0.849057,6.70626,25.107,10.38
3.53,U1474D_1H3,38.153,12.7231,45.0203,1.15575,0.745977,4.6178,30.9465,12.76
3.91,U1474D_1H3,76.153,12.9977,45.3565,1.535,0.878283,6.5579,27.8841,11.66
4.3,U1474D_1H3,114.353,13.4282,48.8734,1.64668,0.88277,7.33577,23.0426,11.84
4.69,U1474D_1H4,3.694,12.7519,49.0014,1.44729,0.848775,5.58164,25.5785,12.37
5.07,U1474D_1H4,41.694,12.6517,47.8354,1.58392,0.879734,6.47781,25.7809,11.5
5.45,U1474F_2H2,110.236,12.9177,46.918,1.57017,0.872097,6.41831,26.5132,12.12
5.87,U1474F_2H3,1.603,12.8009,47.8568,1.50576,0.848567,6.32696,25.8705,13.99
6.25,U1474F_2H3,39.603,13.6244,48.4238,1.77657,0.911721,6.85918,23.6137,13.62
6.63,U1474F_2H3,77.603,12.9365,46.8263,1.49077,0.805615,5.82462,27.3257,14.14
7.01,U1474F_2H3,115.603,12.838,47.9134,1.86676,0.862367,8.98939,22.7396,14.02
7.41,U1474F_2H4,5.619,12.1382,43.6712,1.04417,0.668677,4.63946,33.0478,15.75
7.79,U1474F_2H4,43.619,13.936,48.3683,1.63199,0.852257,6.32336,24.0976,14.67
8.17,U1474F_2H4,81.618,13.2841,48.0288,1.51525,0.790499,5.8135,25.7773,15.15
8.55,U1474F_2H4,119.619,12.4103,47.4541,1.45967,0.800012,5.77384,27.3115,14.6
8.95,U1474F_2H5,9.52,12.6015,46.2243,1.31795,0.751912,6.07197,28.2418,12.41
9.33,U1474F_2H5,47.52,12.747,43.9466,1.07718,0.709471,4.35054,32.3787,13.62
9.71,U1474F_2H5,85.52,13.0231,47.0075,1.37044,0.794686,5.25781,27.7559,13.19
10.09,U1474F_2H5,123.52,12.6786,44.2284,1.11728,0.732333,4.81921,31.6337,13.08
10.49,U1474F_2H6,13.796,12.1604,38.8252,0.722584,0.547255,3.30526,39.6487,16.35
10.87,U1474F_2H6,51.796,12.5898,43.9188,1.02541,0.694603,4.45045,32.5304,14.18
11.25,U1474F_2H6,89.796,12.6646,41.1958,0.90907,0.619064,5.87339,33.9475,14.97
11.63,U1474D_3H1,107.254,12.3558,42.6278,1.02422,0.699337,4.85551,33.6467,12.7
12.01,U1474D_3H1,145.254,12.9285,43.0483,1.15172,0.701504,5.17747,32.202,13.02
12.41,U1474D_3H2,35.128,13.1407,45.5247,1.23261,0.724865,4.88186,29.7048,13.06
12.79,U1474D_3H2,73.128,12.4324,46.0008,1.35226,0.76846,5.67748,28.978,12.78
13.17,U1474D_3H2,111.128,12.3485,44.0169,1.14972,0.720488,4.82417,32.1497,13.06
13.57,U1474D_3H3,1.261,12.0995,42.114,1.07352,0.65352,4.79487,34.474,13.31
13.95,U1474D_3H3,39.261,12.7313,40.6402,0.908963,0.623216,3.91566,36.3901,13.77
14.33,U1474D_3H3,77.261,12.7342,42.2696,1.03591,0.658767,4.9246,33.5863,13.63
14.71,U1474D_3H3,115.861,12.2076,41.7186,0.96275,0.638422,4.22648,35.4556,13.85
15.11,U1474D_3H4,5.437,12.428,44.2134,1.1526,0.701009,4.66996,32.0445,13.45
15.49,U1474D_3H4,43.437,12.6962,41.7667,0.984525,0.607493,3.9398,35.2147,13.85
15.87,U1474D_3H4,81.437,13.0548,43.3786,1.11355,0.663577,4.55483,32.4441,13.89
16.25,U1474D_3H4,119.437,12.6666,42.1395,0.967862,0.588719,4.06292,34.7838,14.68
16.65,U1474D_3H5,9.514,12.6808,42.3755,1.03532,0.638498,4.88665,33.5927,13.85
17.03,U1474D_3H5,47.514,12.4928,43.5747,1.06003,0.636264,4.28069,33.165,13.91
17.82,U1474A_3H4,11.515,12.7456,41.4777,0.926278,0.608961,3.71396,35.737,14.3
18.2,U1474A_3H4,49.515,12.233,39.5605,0.845258,0.557266,3.65962,38.3539,14.97
18.58,U1474A_3H4,87.515,12.0601,41.6172,0.911675,0.594694,4.2185,35.8073,14.31
18.96,U1474A_3H4,125.515,12.0952,44.6759,1.17786,0.676218,4.90268,31.6816,13.36
19.36,U1474A_3H5,15.706,13.7787,45.393,0.99906,0.607373,3.96321,30.468,14.3
19.74,U1474A_3H5,53.706,13.1701,46.0075,1.01489,0.586505,4.35313,30.0773,14.33
20.12,U1474A_3H5,91.706,13.1761,46.6269,1.00431,0.598254,3.97509,29.8289,14.31
20.51,U1474A_3H5,130.506,13.5783,44.4087,0.90914,0.592189,3.6278,32.0933,13.52
20.88,U1474D_4H1,32.761,12.1348,42.4308,1.0395,0.696516,4.87228,34.0355,6.91
21.26,U1474D_4H1,70.761,12.7358,40.6078,0.979962,0.703513,4.6416,35.5408,6.37
21.64,U1474D_4H1,109.16,13.2968,45.3517,1.43025,0.802996,6.28238,28.0453,5.24
22.02,U1474D_4H1,147.36,12.3593,41.5637,0.995188,0.651958,4.06902,35.5702,6.21
22.42,U1474D_4H2,37.386,12.017,41.3334,1.01094,0.658589,4.59294,35.5965,14.2
22.8,U1474D_4H2,75.386,12.0734,40.9485,0.978284,0.644219,3.99195,36.5731,14.69
23.18,U1474D_4H2,113.386,12.2987,44.2027,1.28029,0.723466,5.59708,31.1072,13.39
23.58,U1474D_4H3,3.479,13.1463,46.7685,1.46846,0.747797,5.74706,27.3313,12.62
23.96,U1474D_4H3,41.479,13.4209,45.805,1.31717,0.727749,4.74851,29.1902,13.19
24.34,U1474D_4H3,79.479,12.186,43.4044,1.06974,0.661034,4.19453,33.6938,14.31
24.72,U1474D_4H3,117.479,13.4855,45.5017,1.31905,0.742969,5.38356,28.7766,12.96
25.12,U1474D_4H4,7.548,12.9637,46.0632,1.3166,0.712804,4.76156,29.3916,13.27
25.5,U1474D_4H4,45.548,12.4678,45.1602,1.1657,0.72367,4.94964,30.7425,13.51
25.88,U1474D_4H4,83.548,13.718,47.2083,1.56605,0.813467,6.28597,25.6177,12.32
26.26,U1474F_4H3,75.277,12.4658,44.955,1.06841,0.663197,4.21877,31.8384,13.66
26.64,U1474F_4H3,113.277,13.0664,47.8738,1.3974,0.738724,5.4417,26.6914,12.86
27.04,U1474F_4H4,3.479,12.9155,47.819,1.33705,0.746733,5.06929,27.3219,12.81
27.42,U1474F_4H4,41.479,12.7059,46.8407,1.24464,0.704178,4.419,29.295,13.12
27.8,U1474F_4H4,79.479,12.0478,45.4976,1.03917,0.669078,4.27606,31.6798,13.47
28.18,U1474F_4H4,117.479,13.2262,50.3229,1.95895,0.83777,7.32267,21.5411,12.72
28.58,U1474F_4H5,7.167,13.337,50.2451,1.74918,0.79867,5.34903,23.7305,13.65
28.96,U1474F_4H5,45.167,14.0905,51.1954,1.90911,0.896893,6.5758,20.5418,13.12
29.34,U1474F_4H5,83.167,12.3433,46.9171,1.11501,0.689441,4.0829,30.0618,13.09
29.72,U1474F_4H5,121.167,13.417,48.2705,1.47337,0.780551,5.36368,25.9044,11.88
30.12,U1474F_4H6,11.259,12.5635,48.529,1.49053,0.750621,5.73553,26.1403,12.85
30.5,U1474F_4H6,49.259,12.1667,47.5641,1.10805,0.678401,3.71832,29.974,13.58
30.89,U1474A_4H4,139.509,12.7795,49.7129,1.91879,0.810659,6.75628,23.2314,12.67
31.3,U1474A_4H5,29.953,12.9605,48.9487,1.4798,0.764622,5.09958,25.9563,12.96
31.68,U1474A_4H5,67.953,12.7157,47.4176,1.20226,0.720936,4.47257,28.6804,13.1
32.08,U1474A_4H5,108.553,12.3323,46.3196,0.981434,0.64407,4.0774,30.8546,13.85
32.46,U1474A_4H5,146.553,12.5988,46.3763,1.22468,0.703411,4.83477,29.4715,12.41
32.85,U1474A_4H6,35.669,13.8205,49.8748,1.37982,0.668336,4.81225,24.6538,13.74
33.23,U1474A_4H6,73.869,13.2276,48.1049,1.11661,0.623447,3.98798,28.1489,13.85
33.62,U1474A_4H6,112.069,12.8136,47.1147,0.806946,0.540921,3.17184,30.7614,14.5
34.01,U1474F_5H1,114.234,12.6207,43.1331,1.04583,0.651054,4.20619,33.5526,13.33
34.42,U1474F_5H2,5.488,12.4055,44.7083,1.08871,0.638825,4.21692,32.1512,13.0
34.8,U1474F_5H2,43.488,12.9748,46.8383,1.2719,0.710639,4.95536,28.4585,14.08
35.18,U1474F_5H2,81.488,12.8784,48.0193,1.34939,0.710222,4.66123,27.591,14.45
35.56,U1474F_5H2,119.488,13.0567,47.3239,1.44906,0.770469,5.21016,27.3991,14.1
35.96,U1474F_5H3,9.606,12.3341,47.6188,1.31333,0.734231,4.97113,28.2379,17.0
36.34,U1474F_5H3,47.606,12.0305,42.9466,0.965019,0.635659,5.84763,32.7841,16.4
36.72,U1474F_5H3,85.606,12.6793,49.262,1.71333,0.793426,6.45379,24.3076,16.64
37.1,U1474F_5H3,123.606,12.8706,49.1848,2.16225,0.882326,7.33169,22.7778,16.7
37.52,U1474F_5H4,15.966,12.5118,47.3492,1.2787,0.721781,5.02529,28.3228,18.57
37.9,U1474F_5H4,53.966,12.2664,46.946,1.26378,0.690326,4.40772,29.6352,18.27
38.28,U1474F_5H4,91.966,13.2008,46.5768,1.39419,0.719989,5.49929,27.8183,17.18
38.66,U1474F_5H4,129.966,12.963,46.2304,1.35727,0.672351,4.68697,29.2995,18.94
39.08,U1474F_5H5,21.783,12.6412,48.3543,1.38476,0.716158,5.07719,27.0358,16.55
39.46,U1474F_5H5,59.783,13.8174,47.8629,1.54409,0.759966,5.55058,25.6746,16.44
39.84,U1474F_5H5,97.783,12.5049,44.9833,1.16125,0.634694,4.19023,31.7351,18.79
40.22,U1474F_5H5,135.783,9.27076,59.6352,0.758964,0.477784,3.03278,22.034,16.53
40.64,U1474F_5H6,27.635,12.753,47.2675,1.4163,0.74569,5.63678,27.3902,18.18
41.05,U1474F_5H6,68.235,12.606,45.3293,1.18813,0.655581,4.34102,31.0894,19.89
41.43,U1474F_5H6,106.234,11.9225,44.0821,0.994518,0.610062,3.92184,33.6784,18.11
41.87,U1474D_6H1,137.346,12.2813,42.387,1.04035,0.629476,6.29829,32.573,18.17
42.27,U1474D_6H2,27.156,13.0121,42.7807,1.07344,0.650132,4.09652,33.5966,13.82
42.65,U1474D_6H2,65.156,12.0807,45.3821,1.12515,0.67699,4.30373,31.6408,14.36
43.03,U1474D_6H2,103.156,13.509,48.5384,1.63179,0.796726,5.78165,24.9519,12.84
43.41,U1474D_6H2,141.156,13.1032,47.5224,1.48285,0.751678,4.82864,27.5207,12.5
43.81,U1474D_6H3,31.441,13.0055,46.3798,1.23133,0.697779,4.73567,29.1594,13.67
44.19,U1474D_6H3,69.441,13.5738,49.1054,1.68297,0.788814,5.78675,24.2717,12.91
44.57,U1474D_6H3,107.441,13.2385,50.3189,1.81592,0.777271,5.52627,23.5326,12.03
44.95,U1474D_6H3,145.441,13.2161,47.2132,1.49227,0.777569,5.72911,26.7812,11.16
45.35,U1474D_6H4,35.597,12.9769,46.3487,1.27981,0.701996,4.3907,29.5113,13.15
45.73,U1474D_6H4,73.597,12.3372,47.5271,1.40487,0.736797,5.90292,27.3006,13.58
46.11,U1474D_6H4,111.596,12.4423,44.5461,1.1877,0.687354,4.6129,31.7332,13.13
46.52,U1474D_6H5,1.968,13.6209,51.2841,2.09538,0.843383,6.59121,20.7745,11.74
46.9,U1474D_6H5,39.968,13.1775,49.0503,1.59412,0.78449,5.32011,25.283,13.0
47.28,U1474D_6H5,77.968,13.2167,47.5433,1.43858,0.763244,5.45257,26.7952,12.73
47.66,U1474D_6H5,115.968,12.8973,46.8808,1.3046,0.714071,4.8329,28.5798,13.38
48.05,U1474D_6H6,5.168,13.6607,49.4695,1.82901,0.782438,6.90114,22.5667,12.78
48.43,U1474D_6H6,43.168,12.9716,47.7815,1.37179,0.697104,4.59609,27.7913,13.68
48.81,U1474D_6H6,81.168,13.2241,47.3464,1.42767,0.725322,5.25229,27.2337,12.86
49.22,U1474A_6H3,43.341,11.4384,47.3625,1.3052,0.687738,5.65852,28.7571,13.71
49.6,U1474A_6H3,81.341,12.556,47.6641,1.52364,0.744954,5.66495,27.0559,13.13
49.98,U1474A_6H3,119.341,12.8633,47.0165,1.4567,0.72293,5.15051,27.9996,12.54
50.38,U1474A_6H4,9.363,12.7778,46.4387,1.11907,0.66952,3.91947,30.2848,14.06
50.76,U1474A_6H4,47.363,13.2449,46.0013,1.28297,0.679733,4.79267,29.2079,13.43
51.14,U1474A_6H4,85.363,12.5103,47.6042,1.27522,0.720144,4.70001,28.3996,14.45
51.52,U1474A_6H4,123.363,12.6566,47.6555,1.22777,0.71335,4.60652,28.3497,14.05
51.92,U1474A_6H5,13.33,14.4163,51.9348,2.2459,0.85882,6.37602,19.3776,12.17
52.29,U1474D_7H2,71.626,13.1706,46.9364,1.43185,0.737902,4.93351,27.9992,13.24
52.67,U1474D_7H2,109.626,12.4861,45.7584,1.2066,0.681948,4.41925,30.6572,12.96
53.05,U1474D_7H2,147.626,12.3666,45.4728,1.30554,0.727411,5.27754,30.0596,12.6
53.45,U1474D_7H3,37.566,12.5694,45.0403,1.23685,0.695928,4.53784,31.1291,12.96
53.83,U1474D_7H3,75.566,12.3259,46.3436,1.30212,0.735057,4.82599,29.6768,13.65
54.21,U1474D_7H3,113.566,12.1669,45.5301,1.25423,0.673684,5.08892,30.4956,13.39
54.61,U1474D_7H4,3.164,13.2666,46.3339,1.38056,0.71497,5.02813,28.4853,13.16
54.99,U1474D_7H4,41.164,13.0366,48.6456,1.62728,0.764129,5.34174,25.7941,12.12
55.37,U1474D_7H4,79.164,13.2868,47.5757,1.45432,0.742269,5.39969,26.7507,12.86
55.75,U1474D_7H4,117.164,13.363,49.4135,1.80063,0.781029,5.60501,24.2464,12.78
56.15,U1474D_7H5,7.354,13.3648,49.8132,1.76875,0.775856,5.85364,23.6332,12.56
56.53,U1474D_7H5,45.354,12.9955,47.5634,1.39262,0.731348,5.07811,27.4484,13.74
56.91,U1474D_7H5,83.354,13.5301,50.1444,1.7841,0.784122,5.46527,23.5015,12.07
57.29,U1474F_7H3,121.965,12.1789,47.2273,1.21093,0.722374,4.82401,29.0459,13.14
57.7,U1474F_7H4,13.561,13.1154,48.2138,1.554,0.747462,5.1066,26.4722,12.98
58.08,U1474F_7H4,51.561,13.1835,49.2815,1.76258,0.761261,5.37238,24.8482,13.18
58.46,U1474F_7H4,89.761,12.9378,46.6984,1.24824,0.685885,4.95575,28.6834,13.92
58.84,U1474F_7H4,127.761,13.3165,45.9422,1.35485,0.70069,4.92002,28.9751,13.79
59.24,U1474F_7H5,17.367,12.7233,47.6923,1.43371,0.720604,5.08147,27.5581,13.49
59.62,U1474F_7H5,55.367,12.9533,48.3133,1.58772,0.739665,5.37494,26.2405,13.59
60.0,U1474F_7H5,93.367,12.7045,46.7885,1.48324,0.756136,5.23364,28.2435,12.86
60.38,U1474F_7H5,131.367,12.83,48.886,1.75217,0.738189,6.09662,24.9065,12.7
60.78,U1474F_7H6,21.37,13.2016,49.168,1.50895,0.72531,5.36749,25.2381,14.58
61.16,U1474F_7H6,59.37,13.5271,48.3982,1.48613,0.688417,4.75172,26.358,14.52
61.54,U1474F_7H6,97.37,12.3142,48.4864,1.2627,0.689197,4.68549,27.7716,14.0
61.92,U1474D_8H2,75.635,13.6891,48.0823,1.64233,0.750383,5.99994,25.0454,13.95
62.3,U1474D_8H2,113.635,12.9753,48.463,1.4348,0.721193,4.42366,27.1916,12.54
62.7,U1474D_8H3,3.637,13.7806,47.8713,1.55396,0.725592,5.61899,25.659,7.86
63.09,U1474D_8H3,41.837,12.9327,47.1493,1.26824,0.695653,4.56316,28.6004,8.21
63.47,U1474D_8H3,80.437,12.644,47.2925,1.37206,0.715881,4.87471,28.3103,8.7
63.85,U1474D_8H3,118.436,12.9805,49.3023,1.59706,0.738693,5.49676,25.0941,8.86
64.3,U1474D_8H4,13.325,12.2322,47.733,1.4654,0.664707,5.78872,27.3254,13.49
64.68,U1474D_8H4,51.325,13.2875,49.7766,1.83383,0.760652,5.87213,23.6788,13.15
65.06,U1474D_8H4,89.725,12.8672,48.9261,1.64223,0.75167,5.7927,25.2296,12.57
65.44,U1474D_8H4,127.725,12.8819,46.3107,1.24232,0.650711,4.65111,29.4727,12.8
65.84,U1474D_8H5,17.171,12.8264,47.6308,1.4124,0.730536,5.3393,27.2701,13.08
66.22,U1474D_8H5,55.171,11.9845,46.3363,1.03179,0.629918,4.2742,30.9527,13.87
66.6,U1474D_8H5,93.171,12.7319,46.7984,1.1559,0.676099,3.94993,29.8972,12.78
66.98,U1474D_8H5,131.171,12.5282,45.6669,1.14066,0.649238,4.19892,31.0255,13.15
67.38,U1474D_8H6,21.285,13.1133,50.0552,1.51133,0.76459,4.99722,24.7678,12.79
67.76,U1474D_8H6,59.285,13.1487,50.3703,1.63565,0.7672,5.67968,23.6079,12.94
68.14,U1474F_8H3,137.351,12.2242,49.3689,1.33943,0.733207,4.85605,26.6876,13.01
68.54,U1474F_8H4,27.359,12.6782,48.7781,1.31121,0.697442,4.34873,27.3958,12.94
68.92,U1474F_8H4,65.359,12.6007,48.4239,1.27821,0.690083,4.52555,27.6911,13.12
69.3,U1474F_8H4,103.359,12.5065,50.7013,1.37088,0.73278,4.79371,25.1043,13.58
69.68,U1474F_8H4,141.359,13.0613,49.37,1.40269,0.730305,4.76767,25.8775,13.71
70.08,U1474F_8H5,31.371,12.1476,50.1024,1.17442,0.651403,4.89589,26.2378,14.67
70.46,U1474F_8H5,69.371,13.2459,52.4792,1.846,0.796136,6.09081,20.7515,14.27
70.84,U1474F_8H5,107.371,12.3461,47.607,1.09614,0.658775,4.21886,29.2825,13.66
71.22,U1474F_8H5,145.371,11.7542,60.4999,1.45081,0.794705,4.99677,15.713,12.98
71.67,U1474F_8H6,41.263,12.9916,48.1956,1.2649,0.685452,4.7235,27.3484,13.98
72.05,U1474F_8H6,79.262,12.4451,46.8744,1.0957,0.631634,3.77266,30.39,13.54
72.43,U1474F_8H6,117.262,12.9125,46.0162,1.25416,0.642746,4.57917,29.8047,14.73
72.84,U1474A_8H5,82.212,12.7678,48.4274,1.51136,0.696663,5.98928,25.817,14.48
73.23,U1474A_8H5,121.612,12.2968,48.0005,1.23066,0.671252,4.16182,28.8484,13.62
73.63,U1474A_8H6,11.219,13.2373,51.0619,1.97237,0.796633,6.79966,21.3417,14.08
74.01,U1474A_8H6,49.219,12.3,48.7207,1.36904,0.706505,4.89277,27.2204,14.39
74.39,U1474A_8H6,87.219,13.9866,51.1068,2.03998,0.812906,6.98553,20.2777,13.71
74.77,U1474F_9H1,69.768,12.2145,48.2988,1.27402,0.709691,4.80553,27.9069,14.85
75.15,U1474F_9H1,107.768,12.1425,47.9824,1.10534,0.630645,3.88688,29.4617,15.02
75.53,U1474F_9H1,146.168,11.8229,45.2974,1.12188,0.656616,4.51668,31.794,15.78
75.93,U1474F_9H2,35.916,12.0407,48.1849,1.3185,0.6768,4.62006,28.3686,18.52
76.31,U1474F_9H2,73.916,12.1128,46.8884,1.24462,0.686965,4.67076,29.606,17.68
76.69,U1474F_9H2,111.916,9.03474,57.345,0.670876,0.617963,3.08309,24.4578,18.24
77.09,U1474F_9H3,1.814,11.8025,47.7851,1.10979,0.663305,3.86799,29.9808,17.72
77.47,U1474F_9H3,39.814,12.4765,51.3778,2.05554,0.826725,7.32683,21.1461,17.18
77.9,U1474F_9H3,83.214,12.2972,47.4521,1.14897,0.651299,3.92735,29.7325,19.47
78.28,U1474F_9H3,121.214,12.4808,45.6381,1.24049,0.648579,4.28601,30.9155,19.01
78.66,U1474F_9H4,9.318,11.9966,46.5936,1.16995,0.677492,3.95558,30.8163,13.87
79.04,U1474F_9H4,47.318,12.1879,47.5385,1.18838,0.681731,3.7097,29.9033,14.45
79.42,U1474F_9H4,85.318,12.9397,49.7446,1.6529,0.736539,5.26878,24.867,14.17
79.8,U1474F_9H4,123.318,12.3554,48.3972,1.25463,0.680085,3.71205,28.8102,14.5
80.2,U1474F_9H5,13.363,12.3129,48.6085,1.31832,0.681959,3.97346,28.3143,14.39
80.58,U1474F_9H5,51.363,12.4049,48.683,1.32883,0.682265,4.17959,27.9309,15.28
80.96,U1474F_9H5,89.363,12.0381,49.6241,1.38387,0.684341,4.23504,27.244,14.84
81.34,U1474F_9H5,127.363,12.5722,50.7057,1.60317,0.734524,4.33033,25.2635,14.29
81.74,U1474F_9H6,17.468,12.8869,53.5066,2.06661,0.80575,5.55553,20.3881,13.49
82.12,U1474F_9H6,55.468,13.2727,49.0351,1.59982,0.751837,4.65891,25.8911,15.62
82.5,U1474F_9H6,93.468,12.6684,49.4584,1.37799,0.704123,4.07881,26.9218,15.72
82.89,U1474D_10H1,93.662,13.9246,50.3022,1.81213,0.795311,5.0067,23.3685,14.9
83.27,U1474D_10H1,131.662,12.825,49.7513,1.56018,0.748616,4.56241,25.762,15.09
83.69,U1474D_10H2,23.629,11.2557,65.1531,1.42656,0.7473,3.53601,13.0908,15.49
84.07,U1474D_10H2,61.829,12.1888,52.9381,1.66743,0.710285,5.09739,22.6075,15.34
84.48,U1474D_10H2,102.229,12.3172,46.8792,1.27923,0.691161,3.99066,30.052,15.24
84.86,U1474D_10H2,140.229,12.5503,49.4462,1.50339,0.693853,4.17398,26.8418,15.53
85.25,U1474D_10H3,29.859,12.9905,48.3888,1.5051,0.698108,4.95912,26.6679,16.44
85.63,U1474D_10H3,67.859,13.2587,50.6003,1.7144,0.75975,4.24213,24.6342,15.88
86.05,U1474D_10H3,109.859,12.9915,47.4426,1.39547,0.705387,4.39418,28.2804,16.3
86.43,U1474D_10H3,147.859,12.6419,46.9355,1.30517,0.68226,3.70112,29.9435,16.09
86.83,U1474D_10H4,37.302,13.611,48.3471,1.14702,0.621053,3.85897,27.6243,14.59
87.21,U1474D_10H4,75.302,13.9766,51.3202,1.50844,0.707581,4.71714,22.9795,13.21
87.59,U1474D_10H4,113.302,14.5601,52.6425,1.66088,0.695238,4.45459,21.1961,13.36
87.99,U1474D_10H5,3.302,13.272,50.1928,1.76596,0.771558,5.73027,23.4768,13.18
88.37,U1474D_10H5,41.302,13.1448,48.8305,1.47562,0.682228,4.21485,26.8615,14.08
88.75,U1474D_10H5,79.302,12.3047,47.0342,1.17879,0.627341,4.15428,29.9101,14.16
89.13,U1474D_10H5,117.302,13.4551,49.7012,1.67913,0.754487,5.36399,24.2556,13.59
89.55,U1474D_10H6,9.262,13.0127,48.4662,1.41067,0.698785,4.54939,27.0717,14.0
89.93,U1474D_10H6,47.262,13.0724,48.757,1.4235,0.711339,4.58266,26.6626,13.27
90.31,U1474D_10H6,85.262,12.4235,49.178,1.34561,0.692781,4.12464,27.445,13.57
90.69,U1474D_10H6,123.262,12.2203,49.1358,1.46994,0.699517,5.43658,26.2474,14.33
91.08,U1474F_10H5,6.081,13.2988,48.9231,1.56431,0.705398,4.80189,25.916,14.42
91.46,U1474F_10H5,44.081,13.1234,50.2288,1.73299,0.741958,5.29417,24.0882,13.96
91.84,U1474F_10H5,82.081,12.5707,47.7995,1.32741,0.665319,4.51369,28.3329,14.64
92.22,U1474F_10H5,120.281,13.0712,49.6765,1.55676,0.720858,4.85123,25.333,14.02
92.62,U1474F_10H6,9.829,12.8041,49.5967,1.45039,0.707849,4.68811,25.9623,14.93
93.0,U1474F_10H6,47.829,13.8103,49.54,1.71862,0.752486,5.25063,24.1374,13.39
93.38,U1474D_11H1,95.347,12.705,48.9689,1.52146,0.74298,4.75907,26.5121,13.1
93.76,U1474D_11H1,133.347,12.9195,47.7295,1.4592,0.713943,4.70091,27.6864,13.74
94.17,U1474D_11H2,23.772,12.2217,49.1463,1.2691,0.691711,3.9004,27.9803,14.85
94.55,U1474D_11H2,61.772,12.4242,47.3413,1.53483,0.763699,5.05815,28.0873,15.39
94.93,U1474D_11H2,99.772,12.3377,48.1294,1.52085,0.752612,4.76624,27.7027,13.84
95.31,U1474D_11H2,137.772,12.8304,47.9651,1.56187,0.726928,5.18258,26.9426,14.43
95.7,U1474D_11H3,27.593,13.1786,47.6021,1.38962,0.673017,4.38648,27.9796,15.4
96.11,U1474D_11H3,68.193,12.5364,49.2136,1.31905,0.685246,4.03127,27.4239,15.55
96.49,U1474D_11H3,106.193,12.8709,50.1361,1.6112,0.701339,4.64889,25.241,15.36
96.87,U1474D_11H3,144.193,13.4854,50.9049,1.81898,0.752221,4.88875,23.3593,16.01
97.26,U1474D_11H4,33.514,12.9995,48.1269,1.39002,0.683522,4.52921,27.4803,11.79
97.64,U1474D_11H4,71.514,13.4904,49.7592,1.68088,0.737931,5.1509,24.3902,10.89
98.02,U1474D_11H4,109.514,13.7005,49.0548,1.67626,0.740687,4.90539,25.1319,10.17
98.4,U1474D_11H4,147.514,12.7323,47.7687,1.42689,0.684642,4.88075,27.7163,11.37
98.8,U1474D_11H5,37.284,12.9679,50.3365,1.81662,0.812529,5.15727,24.1187,4.73
99.19,U1474D_11H5,75.684,13.4,50.8003,1.80122,0.767432,4.86583,23.5746,4.14
99.57,U1474D_11H5,113.884,13.1379,50.2212,1.553,0.707266,4.57803,25.0121,4.85
99.96,U1474D_11H6,3.271,13.4163,51.9666,2.00605,0.755036,4.94641,22.1191,16.08
100.34,U1474D_11H6,41.271,14.0294,54.7061,2.53535,0.83873,5.73576,17.3642,13.93
100.72,U1474D_11H6,79.271,12.9252,52.1647,2.00862,0.772518,5.14861,22.1899,15.31
101.14,U1474D_11H7,21.057,13.2204,50.2442,1.5858,0.726032,4.37905,25.054,15.29
101.52,U1474F_11H4,121.452,13.1505,49.7486,1.51852,0.733066,4.44502,25.6138,14.19
101.92,U1474F_11H5,11.264,12.8267,49.4199,1.39604,0.687884,4.5117,26.3672,14.87
102.3,U1474F_11H5,49.264,13.1691,51.4962,1.63201,0.740382,4.38041,23.7914,14.06
102.68,U1474F_11H5,87.464,12.7207,51.1058,1.66316,0.735991,5.08679,23.897,14.27
103.06,U1474F_11H5,125.464,12.2672,49.3832,1.28991,0.663039,4.04359,27.5625,14.85
103.45,U1474F_11H6,13.562,12.0338,50.2292,2.11888,0.869416,6.9747,22.9834,12.92
103.83,U1474F_11H6,51.762,12.4219,49.8993,1.98267,0.793302,6.91732,23.195,13.8
104.21,U1474F_11H6,89.762,13.2112,50.2779,1.6956,0.757571,5.17278,24.0943,13.95
104.59,U1474F_11H6,127.761,13.4785,49.7137,1.92926,0.780327,5.6563,23.6514,13.15
105.0,U1474D_12H2,17.616,11.5289,57.306,1.65672,0.738249,4.57056,19.4091,12.8
105.38,U1474D_12H2,55.616,12.5082,48.3433,1.34101,0.683281,3.9535,28.3802,13.8
105.76,U1474D_12H2,93.616,13.2703,50.4821,1.80746,0.767336,4.97546,23.9068,13.84
106.14,U1474D_12H2,131.616,12.6596,49.9248,1.81499,0.749472,5.55183,24.5087,13.48
106.54,U1474D_12H3,21.473,13.3276,50.1305,1.75866,0.772303,5.35787,23.8625,14.91
106.92,U1474D_12H3,59.473,12.7292,50.0056,1.42389,0.659144,4.27779,26.1139,15.04
107.3,U1474D_12H3,97.473,12.9852,48.2765,1.43956,0.675733,4.19077,27.6417,15.43
107.69,U1474F_12H2,34.948,11.9008,48.7149,1.16097,0.622354,3.50511,29.3054,15.49
108.07,U1474F_12H2,72.948,13.2615,51.2131,1.89241,0.762994,5.46967,22.6098,15.31
108.48,U1474F_12H2,113.748,13.0961,50.7137,1.68188,0.738797,4.74605,24.2329,15.34
108.87,U1474F_12H3,3.534,12.7545,51.4622,1.77821,0.736083,5.19876,23.2798,15.81
109.25,U1474F_12H3,41.534,13.0125,48.9669,1.68651,0.715972,4.96272,25.8649,16.14
109.64,U1474F_12H3,79.734,13.5278,50.0972,1.82066,0.722588,4.81073,24.2305,16.88
110.02,U1474F_12H3,117.934,13.0503,48.258,1.46921,0.68308,4.43562,27.3133,17.06
110.42,U1474F_12H4,7.724,13.515,50.0701,1.83967,0.727086,5.395,23.6626,17.34
110.8,U1474F_12H4,45.724,13.6434,50.3581,1.73228,0.711042,4.51234,24.2522,17.39
111.18,U1474F_12H4,83.724,13.1664,50.5727,1.73141,0.740489,4.92979,24.0686,18.81
111.56,U1474F_12H4,121.723,13.6998,50.8236,1.8846,0.740165,5.51534,22.546,18.21
111.97,U1474F_12H5,13.379,13.8668,50.482,1.80421,0.711209,4.80699,23.5383,19.32
112.38,U1474F_12H5,53.979,13.0387,49.7036,1.69518,0.688193,4.50919,25.5746,19.73
112.76,U1474F_12H5,92.179,12.8711,48.6679,1.47423,0.636005,4.22174,27.3385,20.3
113.14,U1474F_12H5,130.179,13.32,48.6421,1.60242,0.685114,4.37429,26.5856,19.75
113.52,U1474E_2H1,127.309,14.2152,49.9877,1.63319,0.669084,4.78114,23.9232,16.8
113.93,U1474E_2H2,19.094,14.7065,49.7434,1.5234,0.652289,4.40326,24.1807,17.49
114.31,U1474E_2H2,57.093,14.3698,50.1504,1.5198,0.642711,4.33555,24.1912,19.59
114.69,U1474E_2H2,95.093,14.0986,49.478,1.39002,0.620819,4.37983,25.2422,19.14
115.07,U1474E_2H2,133.094,13.9313,49.4851,1.37889,0.623178,3.99451,25.7964,19.75
115.49,U1474E_2H3,25.167,13.6086,49.8938,1.53494,0.647765,4.63107,24.8932,16.66
115.87,U1474E_2H3,63.167,14.1811,50.5824,1.61872,0.688738,4.98955,23.1489,15.22
116.25,U1474E_2H3,101.167,14.139,49.6037,1.52915,0.663175,4.38482,24.8897,14.45
116.63,U1474E_2H3,139.167,13.9704,49.3402,1.49416,0.64331,4.37183,25.3896,15.2
117.06,U1474E_2H4,31.297,13.8975,49.2612,1.37186,0.651467,3.98543,26.042,14.16
117.44,U1474E_2H4,69.297,14.0366,48.1758,1.2407,0.622354,3.8414,27.2926,15.1
117.82,U1474E_2H4,107.296,14.2171,48.5609,1.35625,0.627904,3.99779,26.4495,15.0
118.2,U1474E_2H4,145.296,13.9774,49.6133,1.55478,0.655962,4.44939,24.9586,15.23
118.6,U1474E_2H5,35.618,13.5869,49.9228,1.63532,0.729079,4.65205,24.6833,14.33
118.98,U1474E_2H5,73.618,13.4222,48.1882,1.49261,0.693781,4.59525,26.8173,14.57
119.36,U1474E_2H5,111.618,13.9459,49.8145,1.72659,0.724368,5.17184,23.8263,14.57
119.78,U1474E_2H6,3.461,14.6082,50.5496,1.51327,0.63517,3.92415,23.9791,9.6
120.15,U1474F_13H3,93.645,13.1856,49.7422,1.72897,0.764396,5.43673,24.3516,13.03
120.54,U1474F_13H3,131.845,14.3909,49.4789,1.99686,0.796413,6.33606,22.2103,12.25
120.94,U1474F_13H4,19.287,13.3118,48.116,1.61977,0.692058,4.76422,26.7057,12.6
121.32,U1474F_13H4,57.487,14.0404,49.4725,1.78378,0.759357,5.97834,23.1751,12.96
121.7,U1474F_13H4,95.487,14.3078,50.7288,2.19301,0.820104,6.95761,20.2021,11.32
122.11,U1474F_13H4,136.087,13.4509,51.7266,2.07319,0.759903,5.36578,21.8331,13.19
122.5,U1474F_13H5,23.287,14.8912,51.3098,1.80328,0.709635,5.60776,20.8878,13.92
122.88,U1474F_13H5,61.287,14.8826,52.3062,1.91607,0.719885,5.12827,20.2564,13.56
123.26,U1474F_13H5,99.287,14.0357,50.0904,1.4186,0.666007,4.54374,24.455,14.25
123.64,U1474F_13H5,137.286,14.3191,51.6312,1.67207,0.707457,4.89925,21.9803,14.3
124.03,U1474F_13H6,25.271,12.6185,48.3613,1.59105,0.769519,5.30023,26.5688,14.18
124.41,U1474F_13H6,63.271,14.4137,49.8939,2.06475,0.782657,6.23677,21.8177,13.79
124.79,U1474F_13H6,101.271,13.6074,52.2872,2.11853,0.79035,5.41826,20.9878,13.36
125.17,U1474D_14H1,72.677,13.0271,47.831,1.64764,0.760379,6.38163,25.5617,14.24
125.55,U1474D_14H1,110.677,14.905,52.9564,2.90342,0.844849,7.83782,15.762,12.91
125.96,U1474D_14H2,1.351,14.0881,53.6441,2.32266,0.785712,5.44697,18.922,13.46
126.34,U1474D_14H2,39.351,13.3955,49.6306,1.67598,0.750264,5.40463,24.3525,14.18
126.72,U1474D_14H2,77.351,13.8435,51.4446,2.34382,0.860149,6.84354,19.8738,13.11
127.1,U1474D_14H2,115.351,13.4019,51.5783,1.92699,0.74403,4.91473,22.6435,13.82
127.52,U1474D_14H3,7.458,12.7464,54.7461,2.13859,0.803309,6.80754,17.9675,13.04
127.91,U1474D_14H3,46.658,13.3579,49.0919,1.88442,0.748491,6.27486,23.852,14.22
128.29,U1474D_14H3,84.658,13.6899,50.7578,2.05664,0.786624,6.00612,21.9124,13.95
128.67,U1474D_14H3,122.658,13.1006,48.7445,1.63507,0.779722,5.27644,25.6732,14.24
129.1,U1474D_14H4,15.542,13.192,50.6882,1.71406,0.78059,5.01412,23.8205,14.69
129.48,U1474D_14H4,53.542,13.1252,49.6603,1.63831,0.743561,5.20862,24.8335,14.31
129.86,U1474D_14H4,91.542,13.8545,50.3505,2.10637,0.800718,6.44921,21.6481,13.91
130.24,U1474D_14H4,129.542,13.7445,51.2507,2.05127,0.748924,5.15335,22.2607,13.52
130.66,U1474D_14H5,21.485,14.6544,52.5698,1.70121,0.710337,5.39596,20.1778,13.4
131.04,U1474D_14H5,59.485,15.3008,52.6548,1.95871,0.729894,5.2992,19.266,13.68
131.42,U1474D_14H5,97.485,14.9927,53.0154,1.86581,0.704515,4.77548,19.8556,14.34
131.8,U1474D_14H5,135.484,14.8405,52.4875,2.22211,0.75029,6.66993,18.2391,14.01
132.22,U1474D_14H6,27.479,13.2985,50.1533,1.85678,0.753379,5.55918,23.5884,15.51
132.6,U1474D_14H6,65.479,13.4267,49.3982,1.76541,0.744455,5.38176,24.493,15.09
132.98,U1474D_14H6,103.479,13.5793,49.1739,1.74786,0.754665,5.34275,24.611,15.33
133.36,U1474D_14H6,141.479,13.2778,47.9631,1.50866,0.681862,4.5207,27.2574,14.43
133.79,U1474A_14H3,107.264,13.0574,49.6442,1.64976,0.765981,5.57065,24.5215,15.9
134.17,U1474A_14H3,145.264,12.7067,50.575,1.75983,0.772491,5.18708,24.2084,15.37
134.59,U1474A_14H4,37.105,13.6309,50.94,1.70034,0.739036,4.78127,23.418,15.15
134.97,U1474A_14H4,75.505,12.7263,48.5782,1.54124,0.698942,4.82638,26.8384,16.34
135.35,U1474A_14H4,113.505,12.6962,51.0532,1.49187,0.698569,5.0756,24.1941,15.26
135.75,U1474A_14H5,3.274,13.3488,50.2292,1.73681,0.779896,5.72394,23.3908,14.66
136.13,U1474A_14H5,41.274,13.7353,51.3652,1.79659,0.726018,5.00355,22.5829,15.03
136.51,U1474A_14H5,79.274,13.558,48.7034,1.61149,0.716277,4.77097,25.8493,15.47
136.89,U1474A_14H5,117.274,11.1312,57.9452,1.06003,0.610567,3.38196,21.0805,14.5
137.3,U1474A_14H6,7.511,13.4334,47.6717,1.46017,0.691668,4.41547,27.5371,15.74
137.67,U1474F_15H1,125.065,13.134,47.1028,1.60465,0.743733,5.1906,27.4336,14.63
138.07,U1474F_15H2,15.075,13.2944,47.7462,1.52938,0.689638,4.68076,27.269,15.28
138.45,U1474F_15H2,53.075,13.3553,46.9687,1.3811,0.685659,4.51447,28.3042,15.77
138.83,U1474F_15H2,91.075,13.91,48.681,1.84535,0.777342,5.8204,24.1754,14.71
139.21,U1474F_15H2,129.075,12.8577,47.7062,1.50008,0.680816,4.1861,28.2786,14.92
139.59,U1474F_15H3,17.522,13.1692,49.3406,1.70633,0.728342,5.48903,24.776,15.21
139.97,U1474F_15H3,55.522,14.0141,49.5249,1.90256,0.778794,5.7665,23.2226,14.44
140.35,U1474F_15H3,93.522,13.0568,48.3817,1.68547,0.714048,4.63653,26.735,14.97
140.73,U1474F_15H3,131.522,13.1698,48.0354,1.56653,0.736731,5.067,26.634,14.32
141.13,U1474F_15H4,21.466,13.5967,48.3492,1.8245,0.757316,5.7434,24.9384,14.7
141.54,U1474F_15H4,61.866,13.0104,46.3683,1.45117,0.6688,4.17731,29.5335,16.22
141.92,U1474F_15H4,99.866,13.1451,47.0304,1.52588,0.716978,4.978,27.8132,14.28
142.3,U1474F_15H4,137.866,12.8179,46.4641,1.48299,0.677549,4.92012,28.8468,15.2
142.69,U1474F_15H5,27.641,12.7496,44.7373,1.29033,0.653122,4.08901,31.6902,14.49
143.07,U1474F_15H5,65.641,12.667,47.0139,1.49789,0.716881,4.76514,28.5487,14.28
143.45,U1474F_15H5,103.641,13.1706,48.4844,1.69487,0.744178,5.37643,25.739,13.62
143.83,U1474F_15H5,141.641,12.3801,44.7102,1.45623,0.698026,4.88082,31.0841,13.97
144.23,U1474F_15H6,31.617,13.2376,46.9407,1.55213,0.692858,4.83379,27.9524,14.76
144.61,U1474F_15H6,69.617,12.6713,46.9324,1.42167,0.671899,4.3875,29.1247,15.7
144.99,U1474A_15H5,126.014,13.3724,46.7166,1.36404,0.665127,4.31244,28.7789,15.52
145.41,U1474A_15H6,17.612,14.8693,51.0337,1.68882,0.673458,4.88959,22.0546,16.13
145.79,U1474A_15H6,55.812,14.2341,48.3774,1.23516,0.60482,4.03757,26.7204,16.86
146.17,U1474A_15H6,93.812,13.7653,50.8981,1.40384,0.623386,3.81155,24.7073,16.86
146.58,U1474E_6H2,13.347,13.8004,47.7257,1.61558,0.718406,5.15814,26.1912,15.59
146.96,U1474E_6H2,51.347,13.507,48.6015,1.67672,0.731116,4.79946,25.8936,16.76
147.34,U1474E_6H2,89.347,13.1251,47.8515,1.58082,0.737179,5.0996,26.8153,17.05
147.72,U1474E_6H2,127.747,13.0893,47.8048,1.64764,0.7598,5.27922,26.6287,16.9
148.14,U1474E_6H3,19.269,12.5559,47.2077,1.44423,0.727337,4.57469,28.6995,16.23
148.52,U1474E_6H3,57.269,13.131,48.4786,1.66249,0.751587,5.06918,26.1166,16.96
148.9,U1474E_6H3,95.269,13.0592,46.9155,1.33709,0.680931,4.75964,28.4571,16.23
149.28,U1474E_6H3,133.269,13.0087,47.7841,1.39095,0.711429,4.33937,27.9749,16.07
149.66,U1474E_6H4,21.062,13.4904,48.2199,1.53139,0.705807,4.60104,26.661,15.3
150.04,U1474E_6H4,59.062,13.101,47.4316,1.3657,0.676358,4.18024,28.4545,15.84
150.42,U1474E_6H4,97.062,13.3023,47.6433,1.54791,0.691121,4.94579,27.079,15.39
150.8,U1474E_6H4,135.061,13.1084,48.3759,1.62427,0.721717,5.32977,26.0494,15.66
151.21,U1474E_6H5,25.073,13.0017,48.4931,1.65772,0.71601,4.8969,26.444,14.77
151.58,U1474F_16H4,53.065,13.5307,47.6001,1.40014,0.727747,4.98362,26.9671,14.5
151.96,U1474F_16H4,91.065,13.6155,48.6089,1.76294,0.753605,5.60878,24.8597,15.29
152.34,U1474F_16H4,129.065,13.5075,48.5711,1.60929,0.701898,4.86586,25.9538,14.58
152.76,U1474F_16H5,21.067,13.3063,47.3247,1.38742,0.687283,4.6534,27.8504,15.62
153.14,U1474F_16H5,59.067,11.5321,66.1959,1.95166,0.892734,4.24738,10.3898,11.23
153.53,U1474F_16H5,97.467,13.6619,53.0656,2.42812,0.859662,6.13115,19.0631,13.68
153.91,U1474F_16H5,135.467,13.8656,49.7948,2.08587,0.790846,6.33822,22.3341,14.32
154.3,U1474F_16H6,25.064,13.3181,49.144,1.60008,0.711891,4.93722,25.4981,16.34
154.69,U1474A_16H5,71.434,13.1176,47.8303,1.52335,0.699771,4.86906,27.1693,16.51
155.07,U1474A_16H5,109.434,13.36,48.3234,1.49155,0.716824,4.76699,26.5506,17.13
155.45,U1474A_16H5,147.434,13.3134,49.9393,1.98245,0.801049,5.98374,23.1896,14.76
155.82,U1474A_16H6,35.054,13.2609,49.5546,1.56835,0.733858,4.40293,25.6888,17.0
156.2,U1474E_7H2,47.031,14.0887,50.8169,2.15476,0.824779,6.448,20.8763,16.53
156.58,U1474E_7H2,85.031,13.4728,49.6006,1.82078,0.753931,4.97104,24.5903,17.54
156.96,U1474E_7H2,123.031,14.01,49.8837,1.77821,0.780579,5.34763,23.4093,18.0
157.34,U1474E_7H3,11.064,14.81,51.2367,2.21864,0.827137,6.29314,19.8239,15.09
157.72,U1474E_7H3,49.064,13.339,50.0533,1.80267,0.714685,4.7181,24.5817,17.37
158.1,U1474E_7H3,87.064,14.2509,51.229,2.04983,0.802985,5.8199,21.0568,15.98
158.48,U1474E_7H3,125.064,13.8375,50.1768,1.91023,0.780097,5.75264,22.7521,16.54
158.9,U1474E_7H4,17.069,13.5533,50.6671,1.87482,0.736591,5.28396,23.0937,15.84
159.28,U1474E_7H4,55.069,13.3769,47.3368,1.45366,0.687641,5.61934,26.7351,17.59
159.66,U1474E_7H4,93.069,13.1183,47.8158,1.40087,0.684186,4.2822,27.9081,17.7
160.04,U1474E_7H4,131.069,13.4505,48.1108,1.51452,0.708922,4.86374,26.561,17.11
160.42,U1474E_7H5,19.2,13.4796,49.8386,1.74031,0.733417,5.08791,24.3296,17.2
160.8,U1474E_7H5,57.2,13.5217,50.5147,1.67852,0.742895,4.74618,24.0054,17.61
161.18,U1474E_7H5,95.2,13.555,49.5069,1.87051,0.770494,5.63603,23.8706,15.55
161.56,U1474E_7H5,133.2,13.0274,47.7594,1.54282,0.664563,4.88815,27.3271,16.95
161.98,U1474E_7H6,25.2,13.5395,49.8258,1.84459,0.763977,5.62723,23.6084,15.32
162.36,U1474E_7H6,63.2,13.9195,50.4775,2.15479,0.816074,6.20181,21.6398,14.3
162.74,U1474F_17H5,39.2,13.2814,49.2842,1.52946,0.680449,4.05991,26.374,15.91
163.12,U1474F_17H5,77.2,13.2818,48.6563,1.50913,0.723329,5.07058,25.9683,16.15
163.5,U1474F_17H5,115.2,13.8157,48.9999,1.66862,0.735191,4.94111,25.0489,16.1
163.9,U1474F_17H6,5.2,13.0517,48.2736,1.35965,0.66901,4.37701,27.4784,17.58
164.28,U1474F_17H6,43.2,13.6077,48.5258,1.50117,0.712755,4.71964,26.1424,17.34
164.66,U1474F_17H6,81.2,12.7569,49.4715,1.40795,0.697752,4.51748,26.3579,17.58
165.04,U1474F_17H6,119.2,12.8958,50.1019,1.48316,0.696229,4.12425,25.9082,15.24
165.43,U1474E_8H2,47.25,10.2336,55.1745,0.678487,0.512253,3.05876,25.5519,15.93
165.81,U1474E_8H2,85.25,12.9533,48.3412,1.51836,0.734165,4.82064,26.8419,17.81
166.19,U1474E_8H2,123.25,12.6709,46.9515,1.43725,0.72369,4.78219,28.6439,18.15
166.59,U1474E_8H3,13.377,12.8571,47.6032,1.36111,0.70206,4.39772,28.2882,17.56
166.97,U1474E_8H3,51.377,13.0381,46.7295,1.22729,0.669561,4.32386,29.2212,18.64
167.35,U1474E_8H3,89.377,12.8401,47.9255,1.38456,0.685073,4.3279,28.0463,17.18
167.73,U1474E_8H3,127.377,13.0318,48.4684,1.57281,0.728599,4.76209,26.6457,17.59
168.13,U1474E_8H4,15.25,12.5968,48.3898,1.6275,0.708664,5.70111,26.1857,16.32
168.51,U1474E_8H4,53.25,12.6431,48.7789,1.44369,0.729568,4.58543,27.0287,16.28
168.89,U1474E_8H4,91.25,11.4981,46.377,0.611448,0.508303,3.55646,32.6581,16.39
169.27,U1474E_8H4,129.25,13.3492,48.1139,1.47604,0.723127,4.76099,26.7862,15.77
169.67,U1474E_8H5,17.25,13.1114,47.5505,1.48544,0.716941,4.71265,27.6326,16.46
170.05,U1474E_8H5,55.25,12.6941,44.9585,1.19618,0.666492,4.11371,31.5805,17.72
170.43,U1474E_8H5,93.25,12.6276,46.962,1.26354,0.671283,4.11149,29.5736,15.77
170.81,U1474E_8H5,131.25,12.7266,46.3551,1.34396,0.738842,4.6466,29.3983,15.48
171.21,U1474E_8H6,19.65,13.2594,48.4587,1.47428,0.706557,4.81821,26.4923,19.1
171.59,U1474E_8H6,57.65,12.4921,46.3948,1.20335,0.678768,4.75266,29.6878,19.7
171.96,U1474F_18H3,85.67,13.3147,50.9419,1.80054,0.782253,5.70674,22.6634,16.03
172.34,U1474F_18H3,123.67,13.6105,48.1186,1.49839,0.723252,4.90749,26.3513,15.91
172.76,U1474F_18H4,15.485,13.1616,47.4254,1.34263,0.702532,4.84295,27.7344,15.06
173.14,U1474F_18H4,53.485,13.1596,47.629,1.23896,0.680832,4.56958,27.9316,15.98
173.52,U1474F_18H4,91.485,13.1903,48.7088,1.32837,0.700025,4.33029,26.9517,14.99
173.9,U1474F_18H4,129.484,13.3792,49.0372,1.46785,0.729504,5.25921,25.3365,16.35
174.32,U1474F_18H5,21.283,13.4329,46.8407,1.20003,0.659508,4.73216,28.3442,15.36
174.7,U1474F_18H5,59.283,13.1435,49.3891,1.44054,0.736992,4.77675,25.7225,14.42
175.11,U1474A_18H5,35.68,13.5514,47.7922,1.35772,0.689274,4.4459,27.3729,14.12
175.49,U1474A_18H5,73.68,12.6107,47.7032,1.23749,0.669688,4.96254,28.0258,16.58
175.87,U1474A_18H5,111.68,12.7746,48.0816,1.17951,0.650264,4.32583,28.1976,15.69
176.27,U1474E_9H2,1.65,12.5127,46.2749,1.14611,0.637942,4.32597,30.3118,14.96
176.65,U1474E_9H2,39.65,12.7969,44.8525,1.16491,0.641206,4.4437,31.3103,16.2
177.03,U1474E_9H2,77.65,12.8568,45.154,1.13711,0.666216,4.33288,31.0624,16.61
177.41,U1474E_9H2,115.65,12.1879,46.9043,1.27443,0.687437,4.53093,29.6245,15.63
177.81,U1474E_9H3,5.25,12.8957,44.4543,1.15983,0.643113,4.49837,31.5582,15.59
178.2,U1474E_9H3,44.45,12.9835,46.1671,1.24372,0.685003,4.35207,29.7781,14.11
178.58,U1474E_9H3,82.45,12.4669,46.3779,1.18699,0.687203,4.55509,29.9354,14.93
178.96,U1474E_9H3,120.45,11.7994,45.2882,1.10606,0.622034,4.51097,31.8828,15.91
179.38,U1474E_9H4,13.54,13.2244,46.4382,1.25828,0.666059,4.69935,28.9232,15.02
179.76,U1474E_9H4,51.54,12.7816,46.273,1.17411,0.640265,4.13309,30.2074,15.37
180.14,U1474E_9H4,89.54,12.7905,47.6466,1.31867,0.682209,4.53137,28.2401,14.54
180.52,U1474F_19H2,125.433,12.9296,48.3203,1.36478,0.699886,4.80315,27.0918,13.38
180.94,U1474F_19H3,15.145,13.0745,48.6166,1.32595,0.691443,4.3643,27.1367,13.69
181.32,U1474F_19H3,53.145,12.9349,49.2444,1.39097,0.70552,4.68051,26.2531,13.79
181.7,U1474F_19H3,91.145,12.5663,45.2703,1.12806,0.635275,4.45377,31.1558,15.01
182.08,U1474F_19H3,129.145,12.7668,45.2659,1.14662,0.606885,4.02962,31.3936,14.42
182.49,U1474F_19H4,19.616,12.5382,44.0299,1.03682,0.610235,4.0654,32.929,14.99
182.87,U1474F_19H4,57.616,12.7651,45.5246,1.2493,0.674221,4.56534,30.431,14.32
183.25,U1474F_19H4,95.616,11.9126,45.0015,1.06493,0.655862,4.11353,32.461,14.59
183.63,U1474F_19H4,133.616,12.1502,44.8099,1.07573,0.611895,3.85822,32.7035,14.85
184.05,U1474F_19H5,24.33,12.9966,47.4561,1.233,0.664655,4.71469,28.1444,13.05
184.43,U1474F_19H5,62.33,12.8099,46.9503,1.14362,0.64009,4.47909,29.1865,13.82
184.81,U1474F_19H5,100.33,13.3174,47.0296,1.18162,0.623413,4.19323,28.8642,14.11
185.2,U1474E_10F1,34.2,12.4002,46.3449,1.16546,0.672333,4.51999,30.1066,17.86
185.58,U1474E_10F1,72.2,12.0767,44.7406,1.07129,0.639474,4.06278,32.6187,19.05
185.97,U1474E_10F1,111.2,12.753,45.6371,1.11126,0.658797,4.13053,30.9187,18.57
186.39,U1474E_10F2,3.25,12.6258,46.7673,1.155,0.663888,4.29635,29.7011,18.95
186.77,U1474E_10F2,41.25,12.5647,44.7968,1.07365,0.59684,4.18885,31.9887,20.04
187.15,U1474E_10F2,79.25,12.6369,44.7814,1.09658,0.633307,4.34214,31.7192,19.43
187.53,U1474E_10F2,117.25,12.1963,45.2371,1.06037,0.626471,4.31671,31.7725,18.63
187.91,U1474F_20H1,37.85,12.8703,47.6653,1.31222,0.680506,4.45352,28.2276,17.42
188.29,U1474F_20H1,75.85,13.2839,48.0476,1.36776,0.687979,5.46175,26.3604,18.06
188.67,U1474F_20H1,113.85,13.1732,47.52,1.28734,0.670554,4.5,28.0584,17.49
189.07,U1474F_20H2,3.25,13.0915,46.6559,1.18086,0.670107,4.43209,29.1791,17.63
189.45,U1474F_20H2,41.25,13.4763,47.2103,1.41724,0.685495,4.92797,27.4922,17.58
189.83,U1474F_20H2,79.25,12.7645,46.2087,1.12808,0.643706,4.44383,30.0206,17.52
190.21,U1474F_20H2,117.25,13.8148,46.4383,1.34322,0.675625,5.08529,27.8523,16.35
190.61,U1474F_20H3,5.45,13.3894,46.5339,1.28721,0.666882,4.51305,28.819,16.07
190.99,U1474F_20H3,43.45,12.3166,44.8406,1.05923,0.66305,4.36263,31.9673,16.49
191.37,U1474F_20H3,81.45,12.1805,48.0409,1.23511,0.677397,4.13043,28.9451,16.33
191.76,U1474A_20H1,120.05,10.59,58.0835,1.01333,0.629542,6.02536,18.8677,13.79
192.17,U1474A_20H2,11.25,13.1258,45.9492,1.25905,0.671414,5.28208,28.922,15.99
192.55,U1474A_20H2,49.25,14.0475,48.636,1.54643,0.728377,5.55092,24.7003,16.14
192.93,U1474A_20H2,87.25,12.7531,47.6426,1.22264,0.632922,3.93724,29.0209,18.63
193.31,U1474A_20H2,125.25,12.5163,47.054,1.10168,0.638361,4.2829,29.6163,17.0
193.73,U1474A_20H3,17.25,12.8409,45.3195,1.17947,0.631576,4.12684,31.1112,16.91
194.11,U1474A_20H3,55.25,13.8496,48.9788,1.57884,0.726915,5.26963,24.8056,15.75
194.49,U1474A_20H3,93.25,12.809,46.0083,1.0525,0.642015,4.15521,30.5424,16.98
194.87,U1474A_20H3,131.25,13.9341,48.2028,1.44485,0.709845,5.46822,25.4496,15.67
195.27,U1474A_20H4,21.4,13.1417,44.8039,1.10343,0.615991,3.91735,31.6272,19.02
195.65,U1474A_20H4,59.4,13.057,47.0561,1.38143,0.668083,4.62088,28.426,18.3
196.03,U1474A_20H4,97.4,12.5431,47.4904,1.21643,0.683434,4.57242,28.7037,19.2
196.41,U1474A_20H4,135.4,12.9507,46.0281,1.23834,0.660386,4.48431,29.8477,19.68
196.82,U1474A_20H5,27.2,12.4586,44.8049,0.992847,0.601446,3.97966,32.372,18.23
197.2,U1474A_20H5,65.2,13.1047,47.2884,1.33772,0.670241,5.06354,27.7448,18.16
197.58,U1474A_20H5,103.2,11.8806,45.9572,1.02237,0.595442,3.38176,32.3721,18.96
197.96,U1474A_20H5,141.2,12.8008,47.2878,1.24047,0.665843,4.41716,28.7974,17.08
198.39,U1474A_20H6,34.4,14.9584,49.7066,1.47991,0.640233,5.34736,23.077,16.54
198.77,U1474A_20H6,72.4,13.691,46.4229,1.01642,0.539667,3.56751,29.972,17.82
199.14,U1474F_21H1,100.65,12.9257,49.9517,1.42067,0.702819,5.22442,24.9841,14.28
199.52,U1474F_21H1,138.65,14.53,49.8684,1.82978,0.741576,5.5963,22.6434,13.84
199.94,U1474F_21H2,29.25,13.4429,46.9843,1.3086,0.673636,4.90031,27.8997,14.04
200.32,U1474F_21H2,67.25,13.1347,46.8776,1.36052,0.672177,5.0107,28.1538,14.62
200.7,U1474F_21H2,105.25,13.6607,46.5941,1.41385,0.687946,4.84157,28.0113,14.27
201.08,U1474F_21H2,143.25,13.0843,46.5556,1.32503,0.673777,4.81042,28.7604,14.65
201.48,U1474F_21H3,31.25,13.0781,45.2931,1.19427,0.649998,4.19216,30.8018,14.98
201.86,U1474F_21H3,69.25,13.0808,47.0466,1.28387,0.684576,4.77341,28.3402,14.15
202.24,U1474F_21H3,107.25,13.5562,47.5564,1.42495,0.694405,4.92775,27.0497,14.44
202.62,U1474F_21H3,145.25,13.012,47.8834,1.39377,0.694268,5.08204,27.144,14.38
203.02,U1474F_21H4,33.25,13.6501,47.6791,1.28476,0.688516,4.84627,27.0608,14.32
203.4,U1474F_21H4,71.25,13.4427,47.919,1.41058,0.677872,4.8857,26.8736,13.85
203.78,U1474F_21H4,109.25,12.991,47.725,1.27224,0.685746,4.5335,28.0019,14.97
204.16,U1474A_21H1,76.766,14.3652,50.4405,1.37239,0.675952,4.55506,23.8004,19.1
204.54,U1474A_21H1,114.766,14.3376,48.149,1.1346,0.626713,4.44591,26.5156,19.86
204.95,U1474A_21H2,5.172,14.5353,48.5528,1.28232,0.63005,4.38034,25.8286,17.63
205.33,U1474A_21H2,43.172,14.076,47.7349,1.16158,0.611687,4.3516,27.2736,17.92
205.71,U1474A_21H2,81.172,14.6229,48.9026,1.30413,0.639706,4.90096,24.8392,16.64
206.09,U1474A_21H2,119.171,14.094,50.1829,1.37562,0.643145,4.5283,24.3856,16.04
206.5,U1474A_21H3,11.36,14.4724,48.4689,1.2181,0.638184,4.52857,25.8833,16.73
206.88,U1474A_21H3,49.36,15.121,48.3973,1.2542,0.633909,4.69132,25.1118,15.69
207.26,U1474A_21H3,87.36,14.9337,48.6414,1.37391,0.652207,5.1769,24.4314,14.83
207.64,U1474A_21H3,125.36,13.9677,49.7795,1.3279,0.642512,4.24905,25.2427,14.62
208.04,U1474A_21H4,15.161,13.8992,49.0033,1.12895,0.610856,4.2668,26.3003,15.34
208.42,U1474E_14F1,63.168,13.4089,44.8511,1.24212,0.675001,4.29573,30.7366,13.19
208.8,U1474E_14F1,101.168,13.2224,45.9969,1.3623,0.698222,5.51958,28.41,14.17
209.18,U1474E_14F1,139.169,12.851,46.6775,1.36902,0.696936,5.90117,27.7138,13.28
209.58,U1474E_14F2,29.166,14.0201,47.8747,1.24624,0.611241,4.88168,26.5755,15.65
209.96,U1474E_14F2,67.166,14.1235,48.0206,1.15919,0.623171,4.38855,26.8945,14.79
210.34,U1474E_14F2,105.166,14.9188,49.5593,1.45213,0.649287,4.85469,23.7753,13.61
210.72,U1474E_14F2,143.166,15.1303,51.6595,1.78796,0.725543,5.59865,20.3075,12.94
211.12,U1474E_14F3,33.15,14.4334,49.8026,1.30784,0.650447,5.00077,24.0144,13.41
211.5,U1474E_14F3,71.15,14.3237,49.1649,1.28299,0.617239,4.20516,25.6154,14.83
211.88,U1474E_14F4,9.356,14.9005,51.4423,1.64069,0.698481,4.96615,21.5614,13.3
212.26,U1474E_14F4,47.356,15.3344,50.5817,1.47176,0.688062,5.07249,22.0611,13.24
212.63,U1474F_23F1,37.736,14.2108,49.4567,1.33054,0.640175,4.18028,25.391,15.5
213.01,U1474F_23F1,75.736,13.8729,48.143,1.15239,0.628549,4.78817,26.6244,16.69
213.39,U1474F_23F1,113.736,14.4512,48.4387,1.2301,0.642357,4.25619,26.191,16.8
213.81,U1474F_23F2,5.37,13.5431,47.4303,1.33016,0.7036,5.11922,27.0831,16.88
214.19,U1474F_23F2,43.37,13.3297,46.033,1.19367,0.638978,4.59985,29.4143,16.87
214.57,U1474F_23F2,81.37,13.5376,47.0184,1.32796,0.670023,5.05774,27.5977,15.84
214.95,U1474F_23F2,119.37,13.509,44.8334,1.15513,0.619535,4.28525,30.8072,17.26
215.35,U1474F_23F3,9.45,13.0844,46.2042,1.3057,0.663328,4.62873,29.3231,16.37
215.73,U1474F_23F3,47.45,13.4606,48.004,1.50011,0.702481,5.36329,26.179,15.87
216.15,U1474F_23F3,89.85,10.3518,63.2755,1.08663,0.651998,4.08413,15.7593,10.52
216.54,U1474A_22H2,64.25,13.5171,47.4893,1.34168,0.686346,4.93463,27.2404,14.47
216.92,U1474A_22H2,102.25,13.2547,49.1937,1.42454,0.705524,4.71599,25.9151,14.59
217.3,U1474A_22H2,140.25,13.6956,48.7468,1.47543,0.725821,5.57902,24.9867,13.5
217.7,U1474E_16F1,75.25,12.5664,47.2133,1.12137,0.644952,4.47359,29.1899,15.83
218.08,U1474E_16F1,113.25,13.612,48.4602,1.37436,0.667462,4.57637,26.5191,13.83
218.5,U1474E_16F2,5.25,12.8594,46.3604,1.12293,0.614844,4.57897,29.673,14.41
218.88,U1474E_16F2,43.25,13.2624,46.429,1.22615,0.633535,4.92306,28.7352,13.48
219.26,U1474E_16F2,81.25,13.1212,48.9879,1.30462,0.669808,4.68741,26.4385,14.46
219.64,U1474E_16F2,119.25,12.7213,46.893,1.25705,0.650346,4.83825,28.8495,14.56
220.06,U1474E_16F3,11.25,13.5356,45.1951,1.10309,0.614392,4.24491,30.5164,14.95
220.44,U1474E_16F3,49.25,12.7747,46.3651,1.15039,0.631317,4.25237,30.0356,14.31
220.82,U1474E_16F3,87.25,13.1634,46.07,1.15845,0.639565,4.74283,29.4352,14.1
221.22,U1474E_16F4,27.25,13.3697,44.5581,1.01076,0.585794,3.94266,31.7425,14.84
221.6,U1474E_16F4,65.25,12.7544,43.5693,1.04047,0.594572,4.03608,33.2146,14.93
225.69,U1474F_26F2,49.45,12.7508,45.0559,1.03791,0.590769,3.81952,31.9545,14.46
226.08,U1474F_26F2,87.65,12.7763,43.7168,0.94234,0.580174,5.09267,32.1012,12.1
226.46,U1474F_26F2,125.65,13.2504,44.6054,1.07844,0.630032,4.27671,31.3684,13.83
227.47,U1474E_18F1,65.25,12.7929,44.2396,1.05988,0.599809,4.16566,32.3516,13.8
227.85,U1474E_18F1,103.65,12.6557,46.0489,1.15981,0.650606,6.65276,28.0417,14.72
228.23,U1474E_18F1,141.65,12.5486,45.0611,1.12111,0.621275,4.29387,31.5636,13.63
228.63,U1474E_18F2,31.25,12.5251,44.4287,1.05005,0.592034,4.03253,32.581,14.2
229.01,U1474E_18F2,69.25,12.8935,43.9022,0.969011,0.586464,3.87199,32.9864,14.45
229.39,U1474E_18F2,107.25,13.9799,46.5413,1.29979,0.664046,5.4499,27.2745,13.94
229.77,U1474E_18F2,145.25,12.4824,47.8859,1.2992,0.649726,4.3517,28.5405,13.53
230.17,U1474F_27F2,13.25,12.7567,46.0707,1.08045,0.633475,4.17338,30.4947,18.31
230.55,U1474F_27F2,51.25,13.3257,49.8256,1.46306,0.685075,4.56301,25.3471,16.77
230.93,U1474F_27F2,89.25,12.6743,45.9582,0.989437,0.611747,3.98617,30.9895,18.8
231.31,U1474F_27F2,127.25,13.4107,47.839,1.28952,0.669319,4.70558,27.2954,16.53
231.71,U1474F_27F3,17.45,13.2462,44.8312,1.02354,0.601141,3.82579,31.6816,17.2
232.09,U1474E_19F1,69.45,12.9141,46.3328,1.2566,0.685752,4.93063,29.0895,14.44
232.47,U1474E_19F1,107.45,12.4875,45.7687,1.19242,0.670091,4.86374,30.227,15.22
232.85,U1474E_19F1,145.45,12.9942,48.3075,1.27747,0.693932,4.8649,27.0714,14.03
233.25,U1474E_19F2,35.25,12.9389,47.3427,1.26745,0.679004,4.59927,28.3822,15.64
233.63,U1474E_19F2,73.25,12.845,48.6341,1.39903,0.691209,5.8672,25.773,13.85
234.01,U1474F_28F1,86.25,12.4848,48.2642,1.32892,0.671856,4.69135,27.7683,14.87
234.39,U1474F_28F1,124.25,13.0804,50.2697,1.40161,0.727705,5.442,24.288,13.84
234.78,U1474F_28F2,17.45,14.0048,48.8495,1.41878,0.676435,4.58843,25.6715,15.02
236.46,U1474F_28F3,35.253,13.1149,47.9953,1.21949,0.673001,4.58668,27.6202,15.53
236.84,U1474F_28F3,73.253,13.4457,46.652,1.23132,0.674646,4.70667,28.4992,15.76
237.27,U1474F_28F4,25.452,13.2784,48.698,1.27654,0.683541,5.17303,26.0999,15.86
237.65,U1474F_28F4,63.452,13.4585,48.1445,1.33632,0.691997,5.03732,26.5408,15.13
241.03,U1474F_29F2,13.543,13.9104,52.0918,1.48993,0.684635,5.04337,21.9893,14.48
241.41,U1474F_29F2,51.543,14.6154,49.9212,1.26713,0.639494,4.7678,23.9985,15.18
241.79,U1474F_29F2,89.543,13.9132,49.2116,1.10732,0.612142,4.34683,26.0184,16.02
242.17,U1474F_29F2,127.543,14.0067,49.3191,1.24935,0.638403,4.56215,25.4338,15.93
242.57,U1474F_29F3,17.466,13.8248,49.227,1.15221,0.617144,4.46838,25.9199,15.41
242.95,U1474F_29F3,55.466,13.3934,50.3422,1.19699,0.628334,4.38474,25.2638,15.49
243.33,U1474F_29F3,93.466,15.1566,51.7312,1.52693,0.686177,5.46655,20.642,13.99
243.72,U1474A_25H2,69.485,14.8367,50.0744,1.39818,0.655971,4.98774,23.2565,15.26
244.1,U1474A_25H2,107.485,14.5187,50.7108,1.41623,0.662267,5.22624,22.6752,15.89
244.48,U1474A_25H2,145.485,14.6233,51.6898,1.43308,0.703453,5.01383,21.7461,15.29
244.87,U1474A_25H3,33.51,12.401,45.7801,1.01874,0.62987,4.21295,31.1668,17.48
245.25,U1474A_25H3,71.51,12.6574,45.6392,1.08962,0.636597,4.59712,30.5895,17.47
245.63,U1474A_25H3,109.51,12.5013,43.7832,0.932241,0.580936,4.1056,33.3062,17.87
246.01,U1474A_25H3,147.51,13.0768,44.8511,1.10938,0.632127,4.46259,31.0775,17.11
246.41,U1474A_25H4,37.65,12.9059,45.6327,1.11247,0.640128,4.3107,30.6076,19.09
246.8,U1474F_30F1,95.25,14.0612,48.6406,1.50139,0.715301,5.68942,24.6016,15.18
247.18,U1474F_30F1,133.25,13.9214,49.1756,1.58274,0.744579,5.74355,24.0416,14.91
247.56,U1474F_30F2,21.25,13.2627,47.4944,1.19779,0.659602,4.65546,27.9395,16.39
247.94,U1474F_30F2,59.25,13.3317,50.3274,1.51337,0.682018,4.71354,24.6414,14.66
248.32,U1474F_30F2,97.25,12.8576,46.6193,1.1236,0.647584,4.79944,29.162,16.34
248.7,U1474F_30F2,135.25,13.6791,47.8639,1.53869,0.734282,5.7919,25.6015,14.14
249.12,U1474F_30F3,27.65,13.2151,48.4593,1.33612,0.695853,4.99181,26.5113,14.37
249.51,U1474F_30F3,66.05,13.0345,48.5511,1.34219,0.702399,4.68973,26.8896,15.01
249.91,U1474F_30F4,5.25,13.487,47.9996,1.33639,0.69716,4.57563,27.1138,14.33
250.29,U1474F_30F4,43.25,13.3045,48.6026,1.33679,0.696972,4.63993,26.6288,14.94
250.37,U1474F_30F4,51.25,12.9878,48.4706,1.37034,0.714027,4.782,26.8847,14.57