File: Tables/xrf_calibrated.csv
Depth CCSF (m),Al2O3,SiO2,K2O,TiO2,Fe2O3,CaO,Section
0.06,13.9943,42.5612,1.01095,0.782434,5.30039,31.5601,U1474F_1H1
0.38,13.6686,45.6313,1.30293,0.901999,6.168,27.5367,U1474F_1H1
0.7,14.1334,47.49,1.68297,0.923043,6.32164,24.6584,U1474F_1H1
1.02,13.3182,46.5249,1.38843,0.834286,5.3725,27.7712,U1474F_1H1
1.34,13.38,46.2708,1.40139,0.836427,6.20476,27.1161,U1474F_1H1
1.69,13.3167,45.569,1.44471,0.888266,5.91433,28.0765,U1474F_1H2
2.01,13.6779,46.6268,1.63506,0.878772,6.66596,25.725,U1474F_1H2
2.33,14.247,46.5412,1.56624,0.861411,6.48383,25.5097,U1474F_1H2
2.65,13.1091,44.8811,1.14843,0.766823,4.82222,30.4817,U1474D_1H2
2.97,14.551,48.6897,1.73264,0.905653,6.96399,22.3664,U1474D_1H2
3.35,14.5945,46.9174,1.57102,0.841487,6.00615,25.2789,U1474D_1H3
3.67,13.5863,46.6373,1.42579,0.842235,6.1788,26.5391,U1474D_1H3
3.99,13.3333,47.2897,1.31147,0.765653,5.44897,27.0603,U1474D_1H3
4.31,13.5982,48.5374,1.68108,0.875799,7.65581,22.8612,U1474D_1H3
4.63,13.4809,48.2479,1.64924,0.907751,6.01897,24.9047,U1474D_1H3
4.97,13.1486,47.7336,1.43317,0.840731,5.79096,26.2625,U1474D_1H4
5.29,14.6428,50.157,2.37196,0.975955,8.10929,18.9524,U1474D_1H4
5.6,12.9398,44.028,1.204,0.786772,4.98839,31.2625,U1474F_2H2
5.97,13.2693,46.8455,1.57513,0.869049,6.47224,26.1783,U1474F_2H3
6.29,14.6601,47.6965,1.78509,0.917441,6.88121,23.2691,U1474F_2H3
6.61,13.3498,46.6535,1.47973,0.815752,5.61118,27.2994,U1474F_2H3
6.93,14.2159,48.0196,1.70644,0.868608,7.38561,23.0133,U1474F_2H3
7.25,13.2379,44.2551,1.22131,0.745264,5.30504,30.4448,U1474F_2H3
7.61,13.5312,45.5499,1.26376,0.755651,5.3727,28.7362,U1474F_2H4
7.93,14.3092,47.7683,1.56467,0.83095,5.94426,24.792,U1474F_2H4
8.25,14.3354,48.8386,1.73973,0.849345,6.63633,22.8101,U1474F_2H4
8.57,13.0292,48.2306,1.59064,0.812145,6.44066,25.1062,U1474F_2H4
8.93,13.8595,46.7617,1.43747,0.801892,5.63229,26.7166,U1474F_2H5
9.25,13.2017,43.6134,1.08485,0.70985,4.51941,32.0803,U1474F_2H5
9.57,13.496,46.8449,1.40116,0.795892,5.73597,26.9355,U1474F_2H5
9.89,13.4097,45.5396,1.24058,0.743384,5.60253,28.6737,U1474F_2H5
10.21,12.1946,42.766,0.962792,0.667338,4.1577,34.461,U1474F_2H5
10.57,12.0487,40.9098,0.831853,0.571901,3.9878,36.8594,U1474F_2H6
10.89,12.8067,44.452,1.07584,0.702231,4.56414,31.6085,U1474F_2H6
11.21,12.8998,43.3281,1.05817,0.69116,4.67606,32.5562,U1474F_2H6
11.53,12.9687,40.6394,0.883806,0.663879,3.82117,36.2325,U1474D_3H1
11.85,13.7133,43.0464,1.18811,0.739971,5.4866,31.0351,U1474D_3H1
12.21,12.6593,45.9879,1.37101,0.753773,5.74527,28.6923,U1474D_3H2
12.53,12.6148,42.8934,0.941698,0.655406,4.38465,33.7195,U1474D_3H2
12.85,13.9348,46.3072,1.54375,0.817843,6.22249,26.3834,U1474D_3H2
13.17,12.6758,44.0222,1.12395,0.721296,4.72584,31.9404,U1474D_3H2
13.49,12.2886,40.8005,0.879681,0.6253,4.08499,36.5304,U1474D_3H2
13.85,12.6078,42.2552,0.985317,0.664387,4.63472,34.0621,U1474D_3H3
14.17,12.7601,41.57,0.938994,0.651673,4.5136,34.7751,U1474D_3H3
14.49,12.9776,42.1084,0.980782,0.658434,4.21656,34.2677,U1474D_3H3
14.81,12.967,44.1734,1.12905,0.709309,4.98908,31.2417,U1474D_3H3
15.15,12.9577,44.1949,1.09526,0.669999,4.41911,31.8726,U1474D_3H4
15.47,12.5047,42.236,0.924002,0.592299,3.80279,35.1497,U1474D_3H4
15.79,13.3319,44.5516,1.22533,0.716437,5.10646,30.2777,U1474D_3H4
16.11,12.5194,42.1462,0.992447,0.628302,4.22087,34.7022,U1474D_3H4
16.43,12.4107,41.0425,0.873268,0.597279,3.98864,36.2971,U1474D_3H4
16.77,12.589,43.4871,1.07505,0.662803,4.76429,32.6312,U1474D_3H5
17.09,12.8434,44.3726,1.1449,0.677204,4.64187,31.5295,U1474D_3H5
17.82,12.3836,41.7119,0.90033,0.619641,3.65233,35.9417,U1474A_3H4
18.14,12.0653,40.386,0.858853,0.585053,3.8087,37.5056,U1474A_3H4
18.46,11.67,39.3217,0.732902,0.557737,3.2526,39.6745,U1474A_3H4
18.78,11.6991,41.4973,0.911794,0.646292,4.46841,35.9865,U1474A_3H4
19.1,12.5749,42.3031,1.02145,0.639977,4.5916,34.0785,U1474A_3H4
19.46,14.0264,46.0641,0.997774,0.602398,4.10964,29.4092,U1474A_3H5
19.78,13.0577,45.5327,0.916243,0.565724,3.8864,31.2507,U1474A_3H5
20.1,13.2467,45.5385,0.900603,0.578269,4.03368,30.9118,U1474A_3H5
20.42,13.6853,53.7538,1.30433,0.699441,5.11492,20.6516,U1474A_3H5
20.82,13.7104,44.1367,1.1004,0.656581,4.45376,31.1516,U1474A_3H6
21.14,12.964,42.8769,0.952789,0.596598,3.86638,33.9529,U1474A_3H6
21.58,13.7708,45.3298,1.33067,0.74585,5.80826,28.224,U1474D_4H1
21.98,13.922,42.4487,1.06394,0.643285,4.18362,32.9479,U1474D_4H1
22.36,12.6259,42.4581,1.0081,0.649071,4.37456,34.0937,U1474D_4H2
22.68,12.4653,41.7285,1.01073,0.667502,4.32798,35.0095,U1474D_4H2
23.0,12.5209,42.8326,1.08177,0.718598,5.05261,33.003,U1474D_4H2
23.32,12.6979,44.4255,1.25452,0.728464,5.10614,30.997,U1474D_4H2
23.68,14.3645,47.4037,1.54871,0.784857,5.51361,25.594,U1474D_4H3
24.0,13.8947,45.9902,1.30273,0.717389,4.79536,28.509,U1474D_4H3
24.32,13.0014,43.4643,1.05108,0.667147,4.13226,32.8932,U1474D_4H3
24.64,13.7514,45.2638,1.23782,0.734353,5.01723,29.2048,U1474D_4H3
24.96,13.908,46.7812,1.43648,0.753242,5.61672,26.7139,U1474D_4H3
25.32,13.1391,44.8191,1.13286,0.708171,4.38327,31.0269,U1474D_4H4
25.64,13.5889,46.4382,1.28083,0.748396,5.01472,28.1384,U1474D_4H4
25.96,14.2779,46.8516,1.37994,0.741535,5.01753,26.941,U1474F_4H3
26.28,12.7304,45.4223,1.04454,0.669095,3.99053,31.3526,U1474F_4H3
26.6,14.1679,47.3772,1.49862,0.763769,5.64264,25.7593,U1474F_4H3
26.92,12.66,47.6954,1.25919,0.733068,4.78231,28.0794,U1474F_4H3
27.28,13.0822,48.0197,1.35956,0.760062,5.1138,26.8742,U1474F_4H4
27.6,12.547,45.2429,0.998092,0.652868,3.73658,32.032,U1474F_4H4
27.92,12.6729,48.041,1.27555,0.736327,4.87013,27.6136,U1474F_4H4
28.24,14.1461,49.6944,1.83016,0.825515,6.04341,22.6698,U1474F_4H4
28.6,13.782,49.3191,1.65839,0.772957,5.17147,24.5055,U1474F_4H5
28.92,13.6683,49.9814,1.65638,0.837496,5.95119,23.1147,U1474F_4H5
29.24,12.6566,52.3336,1.62155,0.772561,5.59075,22.2344,U1474F_4H5
29.56,13.9582,47.6187,1.42931,0.76824,5.79439,25.6406,U1474F_4H5
29.88,12.1678,45.2648,1.01183,0.707719,3.89087,32.1665,U1474F_4H5
30.22,13.4995,48.4071,1.39209,0.739236,4.8901,26.2814,U1474F_4H6
30.54,12.81,45.5962,0.972253,0.644097,3.55848,31.6284,U1474F_4H6
30.87,12.7509,50.2682,2.03302,0.815786,7.5455,21.796,U1474A_4H4
31.23,13.5313,48.6929,1.51557,0.765342,5.04907,25.6553,U1474A_4H5
31.55,13.1791,48.7389,1.40923,0.751403,5.2277,25.9031,U1474A_4H5
31.87,12.3132,46.1377,1.02367,0.662999,4.12351,30.9483,U1474A_4H5
32.21,12.2223,46.1714,0.962031,0.636182,3.85056,31.367,U1474A_4H5
32.57,13.7219,49.1524,1.21518,0.642536,4.38055,26.0969,U1474A_4H6
32.89,14.4157,49.7417,1.41366,0.693289,4.69959,24.2455,U1474A_4H6
33.21,13.7625,48.2423,1.16375,0.617757,4.41218,27.011,U1474A_4H6
33.53,12.7642,46.6044,0.880247,0.569283,3.32718,31.0641,U1474A_4H6
33.84,12.3069,42.5364,1.0021,0.675536,4.27763,34.4108,U1474F_5H1
34.16,12.3988,46.4245,1.33703,0.78492,5.66235,28.6018,U1474F_5H1
34.5,11.7116,44.6599,0.956698,0.629822,3.56505,33.6863,U1474F_5H2
34.82,13.0653,46.6691,1.17002,0.674949,4.47652,29.1537,U1474F_5H2
35.14,12.7751,48.3774,1.42745,0.765862,5.20329,26.6604,U1474F_5H2
35.46,13.797,47.0542,1.36227,0.74385,4.80321,27.4489,U1474F_5H2
35.78,12.418,46.0549,1.0586,0.719786,4.07667,30.8816,U1474F_5H2
36.14,13.1508,46.4882,1.18694,0.702653,4.50196,29.1789,U1474F_5H3
36.46,12.6183,45.092,1.09612,0.686505,4.24081,31.4758,U1474F_5H3
36.78,13.5086,50.5074,2.11713,0.797555,7.91133,20.3675,U1474F_5H3
37.1,14.0153,48.7478,2.12658,0.882619,6.96637,22.4707,U1474F_5H3
37.46,13.1553,47.4697,1.28295,0.720278,4.94661,27.6346,U1474F_5H4
37.78,13.1451,47.1433,1.31815,0.704398,4.77869,28.1198,U1474F_5H4
38.1,12.6197,44.9657,1.05749,0.65857,4.52056,31.3874,U1474F_5H4
38.42,13.9476,46.0954,1.46584,0.729375,5.55015,27.4211,U1474F_5H4
38.74,13.3224,45.9561,1.29434,0.665993,4.2735,29.6971,U1474F_5H4
39.08,12.8793,48.2602,1.36861,0.728658,4.98633,26.9864,U1474F_5H5
39.4,13.3268,47.4737,1.33393,0.712011,4.91823,27.4448,U1474F_5H5
39.72,13.53,46.9294,1.41593,0.719981,5.13344,27.4807,U1474F_5H5
40.04,12.5987,45.0133,1.06811,0.672746,4.41059,31.446,U1474F_5H5
40.4,10.452,54.915,0.732958,0.522908,3.30798,25.2786,U1474F_5H6
40.72,13.6913,46.6178,1.41413,0.756889,5.47367,27.2556,U1474F_5H6
41.04,12.9738,45.5273,1.17688,0.676596,4.30232,30.5526,U1474F_5H6
41.36,12.3194,44.4434,1.03958,0.652537,4.11038,32.6441,U1474F_5H6
41.7,12.5529,44.7533,1.04619,0.651926,4.30768,31.8975,U1474F_5H6
42.09,12.8378,45.2977,1.17471,0.694827,4.61734,30.587,U1474D_6H2
42.41,12.0108,44.2936,1.03844,0.650286,3.90545,33.3109,U1474D_6H2
42.73,12.7234,46.6567,1.30329,0.746116,4.74768,29.0323,U1474D_6H2
43.05,13.0099,48.7112,1.65469,0.792096,6.2965,24.7451,U1474D_6H2
43.37,13.7374,47.661,1.4991,0.759164,4.84062,26.7123,U1474D_6H2
43.73,13.6,47.5805,1.37708,0.736552,4.83453,27.0808,U1474D_6H3
44.05,13.8747,48.127,1.48589,0.766208,5.44231,25.5133,U1474D_6H3
44.37,13.1418,48.2692,1.53745,0.724292,5.15789,26.3789,U1474D_6H3
44.69,13.0169,47.2544,1.33378,0.731904,5.14346,27.729,U1474D_6H3
45.05,13.9677,47.5158,1.49586,0.763827,5.39394,26.0724,U1474D_6H4
45.37,13.1871,46.2808,1.19924,0.680684,4.41945,29.4422,U1474D_6H4
45.69,13.001,46.9744,1.32274,0.742568,5.05927,28.1096,U1474D_6H4
46.01,13.1376,46.3029,1.2666,0.707478,4.58618,29.2088,U1474D_6H4
46.33,12.752,47.7691,1.42687,0.782137,4.88152,27.5979,U1474D_6H4
46.7,13.5016,50.4854,1.79112,0.816917,5.89383,22.7205,U1474D_6H5
47.02,13.2497,47.7465,1.42716,0.765504,5.27045,26.7501,U1474D_6H5
47.34,13.4105,47.2091,1.35056,0.721052,4.89835,27.62,U1474D_6H5
47.66,12.92,46.9868,1.2983,0.71783,4.7184,28.5682,U1474D_6H5
48.01,14.6743,48.8327,1.71278,0.76787,6.07355,23.1483,U1474D_6H6
48.33,13.763,48.9023,1.46683,0.717988,4.80222,25.5571,U1474D_6H6
48.65,12.9248,46.9989,1.11142,0.6671,4.11968,29.3876,U1474D_6H6
49.01,13.2904,47.8612,1.28151,0.70353,4.06014,28.0127,U1474D_6H7
49.33,12.1321,46.5678,1.38843,0.715588,5.78241,28.6231,U1474A_6H3
49.65,13.2697,47.5288,1.51202,0.73969,5.29229,26.867,U1474A_6H3
49.97,13.2711,46.8941,1.44887,0.723674,5.09209,27.7797,U1474A_6H3
50.33,13.0856,45.6696,1.13859,0.68364,3.97038,30.6616,U1474A_6H4
50.65,12.5496,46.8408,1.22688,0.710822,4.45003,29.4313,U1474A_6H4
50.97,12.9734,47.2855,1.39894,0.724366,5.18463,27.6426,U1474A_6H4
51.29,13.3558,47.5679,1.36552,0.724297,4.92636,27.2696,U1474A_6H4
51.61,11.5637,48.3257,1.17707,0.721917,4.68141,28.7396,U1474A_6H4
51.97,14.9047,51.212,2.1504,0.836933,6.39025,19.7151,U1474A_6H5
52.29,13.4769,46.8459,1.41797,0.7393,4.86034,27.8691,U1474D_7H2
52.61,12.6664,45.327,1.22802,0.6943,4.43285,30.8608,U1474D_7H2
52.93,12.7903,46.3432,1.24419,0.725477,5.26606,28.8402,U1474D_7H2
53.29,13.2702,45.7894,1.31516,0.697351,4.81228,29.3251,U1474D_7H3
53.61,12.4046,45.9196,1.21006,0.715087,4.60436,30.3557,U1474D_7H3
53.93,13.2972,48.3409,1.5726,0.767148,5.69406,25.5376,U1474D_7H3
54.25,13.3882,45.9489,1.1686,0.675056,4.24214,29.7866,U1474D_7H3
54.61,13.5463,46.2429,1.37367,0.714083,4.95182,28.3807,U1474D_7H4
54.93,13.4013,47.3535,1.53401,0.742693,5.19774,26.9802,U1474D_7H4
55.25,13.2907,47.9044,1.37773,0.744884,5.20655,26.6853,U1474D_7H4
55.57,13.5334,48.29,1.63581,0.767212,5.59576,25.3873,U1474D_7H4
55.89,13.9784,50.3934,2.39951,0.838433,6.93046,20.6692,U1474D_7H4
56.25,13.2498,47.6329,1.50361,0.73429,5.25923,26.8296,U1474D_7H5
56.57,13.8962,47.6759,1.4194,0.739994,5.36521,26.1128,U1474D_7H5
56.89,14.057,49.5103,1.8036,0.776288,5.60661,23.4556,U1474D_7H5
57.2,12.9091,49.4903,1.44573,0.737067,5.09028,25.5369,U1474F_7H3
57.52,13.1648,47.8236,1.53163,0.761873,5.68907,26.2386,U1474F_7H3
57.88,13.5009,49.5523,1.76011,0.765866,5.43579,24.1945,U1474F_7H4
58.2,13.3882,48.5689,1.75754,0.777241,5.808,24.9096,U1474F_7H4
58.52,12.9407,46.588,1.2617,0.70238,4.99786,28.7188,U1474F_7H4
58.84,13.5668,45.9,1.33701,0.696656,4.86892,28.8401,U1474F_7H4
59.2,13.312,47.3544,1.424,0.70825,5.14348,27.2674,U1474F_7H5
59.52,13.4418,46.7348,1.53995,0.727821,5.3211,27.444,U1474F_7H5
59.84,13.069,46.229,1.41648,0.754561,4.87081,28.8696,U1474F_7H5
60.16,13.4138,47.143,1.43771,0.724233,5.22444,27.2663,U1474F_7H5
60.48,13.1101,47.2224,1.41466,0.711524,4.68344,28.0673,U1474F_7H5
60.84,13.7946,48.9606,1.59144,0.737919,5.47597,24.649,U1474F_7H6
61.16,14.0738,48.0304,1.47916,0.692534,4.68119,26.2524,U1474F_7H6
61.48,12.9738,49.0093,1.42032,0.727525,4.855,26.2235,U1474F_7H6
61.8,13.4241,48.215,1.47596,0.727073,5.08702,26.2802,U1474D_8H2
62.12,13.3604,48.2025,1.45753,0.747143,4.95915,26.4827,U1474D_8H2
62.44,13.4179,46.2191,1.35069,0.725198,5.60175,27.8948,U1474D_8H2
62.8,13.6005,47.0136,1.48116,0.728589,5.18064,27.205,U1474D_8H3
63.12,12.9394,46.5334,1.28874,0.697063,4.44123,29.3097,U1474D_8H3
63.44,13.0762,47.5263,1.43591,0.729804,5.37235,27.0689,U1474D_8H3
63.76,12.9589,46.8818,1.26802,0.718599,4.378,29.0042,U1474D_8H3
64.08,13.1703,47.2761,1.38966,0.75254,4.57137,28.0495,U1474D_8H3
64.44,13.0904,47.4542,1.46075,0.699377,4.63584,27.8689,U1474D_8H4
64.76,14.0045,49.6407,1.95093,0.76609,6.14852,22.6987,U1474D_8H4
65.08,13.2171,48.616,1.52065,0.723591,5.25227,25.8798,U1474D_8H4
65.4,12.6884,46.2775,1.25161,0.674135,4.3787,29.9391,U1474D_8H4
65.76,12.7612,47.7614,1.3241,0.709579,4.7353,27.9179,U1474D_8H5
66.08,12.3274,46.6814,1.13883,0.662495,4.4062,29.9931,U1474D_8H5
66.4,13.0003,47.6235,1.25838,0.69027,4.45506,28.1819,U1474D_8H5
66.72,12.9168,47.3675,1.27461,0.725894,4.92664,27.9979,U1474D_8H5
67.04,12.604,46.8451,1.21761,0.665172,4.31976,29.5578,U1474D_8H5
67.4,13.6826,49.0448,1.46103,0.740957,4.84418,25.4359,U1474D_8H6
67.72,13.4732,49.528,1.49218,0.735553,5.31612,24.6644,U1474D_8H6
68.03,12.812,49.7582,1.45079,0.735678,4.88758,25.5652,U1474F_8H3
68.39,13.2997,47.9873,1.29255,0.699709,4.36416,27.5661,U1474F_8H4
68.71,12.9604,47.8708,1.15508,0.66174,3.96959,28.5918,U1474F_8H4
69.03,13.1429,47.9549,1.23171,0.677838,4.3593,27.8429,U1474F_8H4
69.35,12.6695,50.0282,1.4205,0.729275,5.17888,25.1831,U1474F_8H4
69.67,13.3955,49.2626,1.3954,0.733205,4.70462,25.7181,U1474F_8H4
70.03,12.3999,49.0235,1.16224,0.673748,3.88717,28.0629,U1474F_8H5
70.35,13.4847,50.4634,1.52688,0.771352,5.50383,23.4593,U1474F_8H5
70.67,12.5287,48.8403,1.04331,0.654006,3.82041,28.3227,U1474F_8H5
70.99,13.6135,48.9334,1.34774,0.709379,4.76202,25.8434,U1474F_8H5
71.38,12.5895,49.3381,1.24517,0.70726,4.15074,27.1787,U1474F_8H6
71.72,13.1331,48.8902,1.28812,0.693431,4.76345,26.4412,U1474F_8H6
72.04,12.4144,47.1708,1.09616,0.646244,3.76282,30.119,U1474F_8H6
72.36,12.4858,47.6443,1.27322,0.695866,4.47342,28.6368,U1474F_8H6
72.68,12.9442,46.9036,1.31279,0.659181,5.18042,28.2093,U1474A_8H5
73.0,13.7256,48.3481,1.39787,0.721596,4.76904,26.2473,U1474A_8H5
73.32,13.3769,47.9198,1.31297,0.712877,4.72492,27.162,U1474A_8H5
73.67,14.5417,50.2606,1.93123,0.788595,6.40385,21.2835,U1474A_8H6
73.99,12.9178,49.4384,1.53453,0.751102,5.08959,25.478,U1474A_8H6
74.31,13.3647,49.4977,1.58572,0.766291,5.5492,24.4459,U1474A_8H6
74.63,12.7003,47.3045,1.12875,0.662131,3.86579,29.5481,U1474F_9H1
74.95,13.9595,49.3898,1.61756,0.762968,5.46864,24.0111,U1474F_9H1
75.27,12.2503,47.1452,1.05859,0.625111,4.16502,29.9652,U1474F_9H1
75.63,12.5303,45.9145,1.12851,0.658953,5.04168,29.9355,U1474F_9H2
75.95,12.4094,48.3984,1.33615,0.695792,4.92071,27.449,U1474F_9H2
76.27,12.8315,46.7377,1.3044,0.720001,4.64984,28.966,U1474F_9H2
76.59,9.97038,55.5579,0.678248,0.56696,2.97029,25.4657,U1474F_9H2
76.91,12.3707,47.882,1.38397,0.769189,5.10513,27.6984,U1474F_9H2
77.27,12.5744,48.0273,1.23942,0.718602,4.69086,27.9588,U1474F_9H3
77.59,12.8845,48.6616,1.44256,0.725611,4.98319,26.5121,U1474F_9H3
77.95,13.2334,48.9849,1.38436,0.752019,4.84847,26.0063,U1474F_9H3
78.27,12.6705,45.5501,1.2174,0.664201,4.28613,30.8211,U1474F_9H3
78.62,12.4601,46.4378,1.15735,0.687036,3.96889,30.4984,U1474F_9H4
78.94,11.9291,46.5965,1.11692,0.649563,3.80177,31.1156,U1474F_9H4
79.26,12.1857,48.7676,1.3682,0.739883,4.36044,27.7876,U1474F_9H4
79.58,13.4879,47.9552,1.4149,0.702994,4.46421,27.1843,U1474F_9H4
79.9,12.7752,48.2663,1.33543,0.717114,4.00417,28.1113,U1474F_9H4
80.24,12.146,48.5156,1.2988,0.696665,3.94183,28.6106,U1474F_9H5
80.56,12.7075,48.9279,1.35067,0.700057,4.02556,27.4978,U1474F_9H5
80.88,13.0169,48.6759,1.37268,0.699797,4.10556,27.3386,U1474F_9H5
81.2,12.3818,49.7415,1.52982,0.708222,4.40944,26.4387,U1474F_9H5
81.52,12.6215,51.21,1.79834,0.793203,5.1723,23.6141,U1474F_9H5
81.88,11.2209,52.9902,0.986461,0.598158,4.38197,25.0317,U1474F_9H6
82.2,13.6532,48.9387,1.63281,0.765725,4.68795,25.5311,U1474F_9H6
82.52,12.7385,49.763,1.35426,0.707428,4.00567,26.6406,U1474F_9H6
82.85,13.5745,50.4929,1.84968,0.801213,5.54489,22.9462,U1474D_10H1
83.17,13.4951,53.0569,2.09668,0.80247,5.0271,20.7312,U1474D_10H1
83.53,13.9062,49.4308,1.65144,0.750479,4.77402,24.6964,U1474D_10H2
83.95,13.0852,48.2078,1.516,0.717758,4.5907,27.0921,U1474D_10H2
84.31,13.2372,49.6422,1.65663,0.758791,4.52036,25.3943,U1474D_10H2
84.63,12.687,48.4685,1.39298,0.709546,4.12652,27.8249,U1474D_10H2
84.99,13.7559,49.9235,1.67359,0.733528,4.24536,24.8775,U1474D_10H3
85.31,12.9552,50.3573,1.61293,0.750847,4.19817,25.335,U1474D_10H3
85.63,13.5918,50.4121,1.70505,0.765569,4.17638,24.5587,U1474D_10H3
85.97,12.9337,48.0232,1.45667,0.735583,4.4597,27.6006,U1474D_10H3
86.29,13.4578,47.7823,1.48643,0.735169,4.24258,27.5053,U1474D_10H3
86.65,12.9763,51.1136,1.20827,0.642356,3.92979,25.3392,U1474D_10H4
86.97,13.815,49.3787,1.40151,0.640549,4.91753,25.0562,U1474D_10H4
87.29,14.5829,50.6954,1.39469,0.669045,4.89746,22.97,U1474D_10H4
87.61,14.8307,52.3258,1.65078,0.688204,4.52154,21.1924,U1474D_10H4
87.93,14.5498,49.9909,1.49701,0.686746,4.96536,23.5197,U1474D_10H4
88.27,13.5915,50.5486,1.80162,0.766729,5.24494,23.2561,U1474D_10H5
88.59,12.441,49.5866,1.39941,0.691552,4.48423,26.6067,U1474D_10H5
88.91,12.8565,48.5862,1.45871,0.705958,4.74894,26.8532,U1474D_10H5
89.23,13.1929,49.5279,1.69102,0.767743,5.08887,24.941,U1474D_10H5
89.56,11.968,48.671,1.35801,0.70105,4.42766,28.0837,U1474D_10H6
89.88,12.8608,48.7357,1.40775,0.713814,4.66308,26.8283,U1474D_10H6
90.2,12.2273,46.1188,1.03506,0.62501,3.59192,31.6113,U1474D_10H6
90.52,12.3972,47.9998,1.28629,0.705631,3.93732,28.8832,U1474D_10H6
90.83,12.9965,48.4042,1.55831,0.72446,5.08022,26.4458,U1474F_10H4
91.18,12.8124,49.3672,1.47296,0.708485,4.53493,26.3135,U1474F_10H5
91.5,13.3621,49.9093,1.63462,0.738026,4.8443,24.7211,U1474F_10H5
91.82,13.1749,47.489,1.34359,0.679972,4.61153,27.9105,U1474F_10H5
92.14,13.1804,49.5877,1.6174,0.734692,5.11342,24.9758,U1474F_10H5
92.46,13.1144,51.3492,1.83741,0.772675,5.06837,23.0674,U1474F_10H5
92.82,13.1972,50.1634,1.9744,0.758903,6.99021,22.1253,U1474F_10H6
93.14,13.114,48.7469,1.58285,0.733894,4.75785,26.274,U1474F_10H6
93.46,12.1783,47.717,1.25853,0.700638,4.26388,29.0911,U1474D_11H1
93.78,12.816,48.1094,1.52012,0.729284,4.94638,27.0883,U1474D_11H1
94.15,13.1652,48.9574,1.38803,0.735441,4.31774,26.6457,U1474D_11H2
94.47,12.9392,48.065,1.53914,0.770095,4.94616,26.9498,U1474D_11H2
94.79,12.8908,46.4121,1.41439,0.743474,4.68936,29.0594,U1474D_11H2
95.11,12.7135,47.4067,1.17224,0.681673,3.8025,29.4329,U1474D_11H2
95.44,13.2622,48.7956,1.537,0.722185,4.82669,26.0658,U1474D_11H3
95.76,13.2774,48.396,1.47704,0.698061,4.66085,26.7001,U1474D_11H3
96.08,13.1348,48.6985,1.26203,0.667754,4.0028,27.4436,U1474D_11H3
96.4,13.2698,49.7284,1.5793,0.709562,4.79249,25.1299,U1474D_11H3
96.72,13.2165,50.3598,1.61211,0.736144,4.66553,24.6194,U1474D_11H3
97.08,13.1952,48.8328,1.37422,0.709611,4.01827,27.0794,U1474D_11H4
97.4,14.0633,48.9578,1.62584,0.735128,4.86627,24.9612,U1474D_11H4
97.72,13.9368,48.3817,1.5331,0.728958,4.85025,25.7786,U1474D_11H4
98.04,13.8127,48.5979,1.58681,0.740479,4.77856,25.693,U1474D_11H4
98.36,12.8914,49.2094,1.42567,0.700827,4.36026,26.6219,U1474D_11H4
98.72,13.3933,49.1515,1.64435,0.764462,4.69618,25.5597,U1474D_11H5
99.04,13.848,48.9086,1.63175,0.77033,4.91351,25.1373,U1474D_11H5
99.36,13.66,50.5733,1.72304,0.764845,5.02771,23.4606,U1474D_11H5
99.68,13.937,49.7442,1.60454,0.715653,4.54523,24.6628,U1474D_11H5
100.02,13.4162,50.2124,2.14258,0.813724,5.35534,23.2692,U1474D_11H6
100.34,14.6639,54.2145,2.58617,0.828943,5.75792,17.158,U1474D_11H6
100.66,13.5244,51.6466,2.10589,0.785223,4.99345,22.1539,U1474D_11H6
101.02,13.7704,51.538,1.92975,0.775326,4.972,22.224,U1474D_11H7
101.34,13.5528,50.8553,1.7212,0.771921,5.09847,23.2098,U1474F_11H4
101.66,13.0836,49.8844,1.56514,0.731695,4.75546,25.1891,U1474F_11H4
102.0,12.9091,50.5682,1.63378,0.731412,5.64394,23.723,U1474F_11H5
102.32,13.2212,50.912,1.5456,0.747009,4.34398,24.4397,U1474F_11H5
102.64,13.5214,50.3435,1.59901,0.720611,4.86624,24.1587,U1474F_11H5
102.96,13.8614,51.7563,1.70992,0.738034,4.52449,22.6193,U1474F_11H5
103.28,12.9282,51.7909,1.85601,0.741902,5.34138,22.551,U1474F_11H5
103.63,12.8687,50.1328,2.15304,0.84232,5.63993,23.5726,U1474F_11H6
103.95,12.1551,49.3209,1.61838,0.789373,4.8664,26.4593,U1474F_11H6
104.27,13.5923,49.9109,1.72134,0.761709,5.38162,23.8416,U1474F_11H6
104.59,13.9369,49.5039,1.92737,0.774957,5.6583,23.408,U1474F_11H6
104.96,12.9188,49.7946,1.66166,0.745132,5.29435,24.7949,U1474D_12H2
105.28,13.2287,47.9144,1.43184,0.694445,4.09596,27.8441,U1474D_12H2
105.6,14.5126,50.9817,2.17064,0.814771,5.94112,20.7887,U1474D_12H2
105.92,13.5197,52.4895,1.99999,0.7657,4.89451,21.54,U1474D_12H2
106.24,12.9251,48.6811,1.50106,0.733364,4.7673,26.6015,U1474D_12H2
106.6,13.1406,49.9689,1.63271,0.743658,4.83036,24.8931,U1474D_12H3
106.92,12.8801,49.8896,1.41168,0.669718,4.30876,26.0496,U1474D_12H3
107.24,12.6122,47.9741,1.47905,0.673299,5.31522,27.1557,U1474D_12H3
107.56,12.9243,50.9015,1.52286,0.704667,3.94242,25.2138,U1474D_12H3
107.87,12.4943,52.9128,1.84083,0.718267,5.59454,21.6487,U1474F_12H2
108.19,13.9545,50.6345,1.75972,0.764866,4.68822,23.4077,U1474F_12H2
108.53,13.0597,49.6664,1.7304,0.738162,5.25155,24.7633,U1474F_12H2
108.89,13.3466,50.005,1.71027,0.750243,5.09433,24.303,U1474F_12H3
109.21,13.4347,49.009,1.73667,0.749206,5.04462,25.2352,U1474F_12H3
109.53,13.6054,49.8288,1.76539,0.7226,4.73052,24.5567,U1474F_12H3
109.85,13.1955,49.088,1.55925,0.70936,4.54652,26.1108,U1474F_12H3
110.17,12.8955,48.3727,1.49243,0.704807,4.51476,27.2292,U1474F_12H3
110.53,13.3363,49.3418,1.68799,0.717059,4.95189,25.1744,U1474F_12H4
110.85,13.3945,51.1208,1.78464,0.72322,4.56275,23.6235,U1474F_12H4
111.17,13.2977,50.4815,1.72,0.750347,4.97606,23.9839,U1474F_12H4
111.49,13.6161,50.3032,1.77925,0.760217,5.32882,23.4219,U1474F_12H4
111.81,14.1024,49.5676,1.76289,0.739451,5.01599,24.0211,U1474F_12H4
112.15,13.9047,49.8522,1.69268,0.700416,4.5337,24.5258,U1474F_12H5
112.47,13.0401,48.7222,1.63364,0.675618,4.60692,26.531,U1474F_12H5
112.79,13.2551,48.5011,1.54016,0.671309,5.07643,26.1654,U1474F_12H5
113.11,13.0579,55.465,1.42322,0.68254,4.56476,20.0161,U1474F_12H5
113.43,14.527,50.2898,1.5676,0.658406,4.65502,23.5117,U1474E_2H1
113.79,13.9953,50.2182,1.54229,0.665913,4.4975,24.2903,U1474E_2H2
114.11,14.0964,50.6718,1.58273,0.678957,4.69332,23.4862,U1474E_2H2
114.43,13.7726,49.8002,1.40723,0.656207,4.16174,25.4115,U1474E_2H2
114.75,13.6978,49.831,1.36638,0.637065,4.13302,25.5442,U1474E_2H2
115.07,13.5132,49.7225,1.36237,0.64472,4.00174,25.9649,U1474E_2H2
115.43,13.5011,50.0397,1.49914,0.669599,4.50915,24.9908,U1474E_2H3
115.75,13.2865,48.2429,1.28101,0.63668,4.12669,27.6357,U1474E_2H3
116.07,13.3602,49.5109,1.47302,0.660832,4.63662,25.5679,U1474E_2H3
116.39,13.5707,49.2549,1.44997,0.64489,4.1972,26.0918,U1474E_2H3
116.71,13.2425,49.906,1.41283,0.663198,4.12762,25.8574,U1474E_2H3
117.06,13.5304,49.4695,1.36623,0.660808,3.98063,26.2019,U1474E_2H4
117.38,12.8497,49.7283,1.36461,0.647884,4.61599,26.003,U1474E_2H4
117.7,13.7453,48.7629,1.33629,0.643576,4.33988,26.3815,U1474E_2H4
118.02,13.9363,49.3461,1.44369,0.65402,4.14023,25.6891,U1474E_2H4
118.38,13.1308,51.793,1.82824,0.726068,4.98551,22.7458,U1474E_2H5
118.76,12.9206,50.5866,1.63242,0.72274,4.86616,24.4809,U1474E_2H5
119.08,12.8999,51.698,1.6937,0.704335,5.02257,23.1909,U1474E_2H5
119.4,13.3996,50.2199,1.74356,0.74324,5.23163,23.8715,U1474E_2H5
119.76,14.6063,50.8471,1.55092,0.663875,4.09815,23.4431,U1474E_2H6
120.07,12.849,50.3017,1.94202,0.774684,6.14218,23.1998,U1474F_13H3
120.39,13.3768,49.6217,1.82544,0.781772,6.11152,23.4922,U1474F_13H3
120.71,13.4208,49.5945,1.97696,0.785649,6.21782,23.2138,U1474F_13H3
121.06,13.0774,50.4689,1.78699,0.713954,4.76561,24.3966,U1474F_13H4
121.38,13.6272,49.7046,1.8255,0.770049,6.31337,22.9688,U1474F_13H4
121.7,14.0994,50.8528,2.2212,0.824318,6.98238,20.2293,U1474F_13H4
122.02,13.4231,49.8074,1.80353,0.742884,5.23401,24.1986,U1474F_13H4
122.36,14.0456,50.5337,1.46887,0.684671,4.56876,23.9079,U1474F_13H5
122.68,15.17,51.4892,1.80833,0.72524,5.3128,20.7039,U1474F_13H5
123.0,14.8411,52.3972,1.83822,0.723855,4.933,20.4761,U1474F_13H5
123.32,14.501,50.7722,1.56848,0.70616,4.86627,22.7953,U1474F_13H5
123.64,13.9686,51.8236,1.68478,0.714033,4.93036,22.0881,U1474F_13H5
123.97,12.0716,48.8531,1.66891,0.795118,5.66237,26.1584,U1474F_13H6
124.29,14.003,50.395,1.98553,0.794839,6.04287,21.9882,U1474F_13H6
124.61,13.6363,49.8984,1.94735,0.76963,5.76684,23.1909,U1474F_13H6
124.93,14.1798,51.4343,2.24511,0.808115,6.09398,20.4482,U1474F_13H6
125.25,12.9655,49.1226,1.75206,0.759172,5.83982,24.7703,U1474D_14H1
125.57,14.0433,50.9374,2.16735,0.815109,6.23735,21.009,U1474D_14H1
125.89,13.4821,51.4598,2.18577,0.809721,5.39153,21.8806,U1474D_14H1
126.26,13.1663,49.5401,1.66454,0.757304,5.29154,24.7897,U1474D_14H2
126.58,13.864,51.5502,2.14232,0.81848,6.46025,20.3742,U1474D_14H2
126.9,12.937,49.9672,1.86875,0.761657,5.34745,24.3275,U1474D_14H2
127.22,13.8718,51.8936,2.08138,0.776254,5.58654,20.9999,U1474D_14H2
127.64,13.5081,49.8278,1.87204,0.797625,5.88318,23.3207,U1474D_14H3
127.96,13.1734,48.9109,1.72,0.729042,5.23891,25.4373,U1474D_14H3
128.28,13.6411,50.5265,2.05381,0.784921,5.94317,22.26,U1474D_14H3
128.6,13.0317,49.0568,1.77169,0.791891,5.72612,24.8313,U1474D_14H3
128.96,13.5446,50.0688,1.81562,0.779418,5.49016,23.5109,U1474D_14H4
129.28,13.3187,50.732,1.66765,0.755013,4.73517,24.001,U1474D_14H4
129.6,13.3588,49.7098,1.71005,0.768124,5.81842,23.8444,U1474D_14H4
129.92,13.6872,50.4798,2.06545,0.792469,6.42322,21.7614,U1474D_14H4
130.24,13.6706,51.2659,2.05985,0.755118,5.13219,22.3258,U1474D_14H4
130.62,15.4235,52.94,1.93545,0.755171,5.50801,18.6473,U1474D_14H5
130.94,16.2186,52.839,2.06278,0.747689,5.42503,17.9164,U1474D_14H5
131.26,15.5687,53.512,2.04184,0.70749,4.68169,18.6978,U1474D_14H5
131.58,14.9464,50.3491,1.64238,0.691172,5.08576,22.4946,U1474D_14H5
131.9,15.1827,51.2245,1.96553,0.726089,5.73961,20.3711,U1474D_14H5
132.26,13.3107,49.9544,1.88039,0.757813,5.56762,23.7385,U1474D_14H6
132.58,12.9292,49.3867,1.71822,0.755673,5.05486,25.3648,U1474D_14H6
132.9,12.7634,49.956,1.8049,0.74334,6.00579,23.936,U1474D_14H6
133.22,12.9135,49.0913,1.50302,0.729002,4.79563,26.1771,U1474D_14H6
133.58,14.5156,50.2678,1.51608,0.674033,4.70053,23.5354,U1474D_14H7
133.9,13.2685,50.1058,1.75651,0.79933,5.46194,23.8174,U1474A_14H3
134.27,13.3328,50.0282,1.59027,0.736021,4.69594,24.8262,U1474A_14H4
134.59,13.424,51.0724,1.71052,0.737494,4.76312,23.5019,U1474A_14H4
134.91,12.6282,48.8669,1.41989,0.706964,4.61688,26.9706,U1474A_14H4
135.23,12.4574,50.0631,1.38537,0.68885,4.16967,26.4451,U1474A_14H4
135.55,13.045,52.0168,1.70168,0.771506,4.85136,22.823,U1474A_14H4
135.9,13.1556,49.8475,1.64939,0.736075,5.03015,24.7908,U1474A_14H5
136.22,12.6946,49.0892,1.38041,0.707894,4.42876,26.9086,U1474A_14H5
136.54,12.4137,49.2485,1.65478,0.708926,4.99631,26.1873,U1474A_14H5
136.86,12.6048,48.8993,1.42599,0.721084,4.53025,27.0281,U1474A_14H5
137.18,12.7833,47.3136,1.59909,0.733511,5.34619,27.4338,U1474A_14H5
137.54,12.9361,49.0495,1.50417,0.722108,4.75733,26.2403,U1474A_14H6
137.85,12.8689,46.6828,1.51992,0.717245,4.85792,28.5627,U1474F_15H1
138.19,12.02,47.5627,1.43326,0.683827,4.58894,28.9207,U1474F_15H2
138.51,13.0418,47.2671,1.42247,0.680633,5.01611,27.7814,U1474F_15H2
138.83,13.6706,48.8196,1.86088,0.774925,5.80966,24.2739,U1474F_15H2
139.15,12.1495,48.0495,1.559,0.708042,4.49279,28.2506,U1474F_15H2
139.49,13.24,49.849,1.80839,0.762579,5.26367,24.2859,U1474F_15H3
139.81,13.4304,51.5733,1.92925,0.773688,5.76325,21.7396,U1474F_15H3
140.13,12.8145,48.0038,1.78203,0.758791,5.60255,26.2478,U1474F_15H3
140.45,13.3064,50.691,2.11538,0.767847,5.53262,22.7961,U1474F_15H3
140.77,12.2939,47.9117,1.49863,0.71416,5.08096,27.7101,U1474F_15H3
141.13,13.3358,48.503,1.83887,0.753489,5.73342,25.0448,U1474F_15H4
141.47,12.3273,46.9468,1.41188,0.681909,4.16958,29.672,U1474F_15H4
141.79,12.0838,47.4341,1.51516,0.704826,4.98373,28.4878,U1474F_15H4
142.11,12.5361,47.1853,1.56113,0.717495,5.0973,28.1121,U1474F_15H4
142.47,12.1736,45.274,1.36781,0.660218,4.52672,31.2071,U1474F_15H5
142.79,10.9032,46.4103,0.912045,0.582319,4.35054,32.051,U1474F_15H5
143.11,12.2568,47.6076,1.59348,0.742069,5.11215,27.8974,U1474F_15H5
143.43,12.7556,48.395,1.66947,0.766079,5.39919,26.2241,U1474F_15H5
143.75,12.3212,45.6169,1.42159,0.692652,4.71368,30.4435,U1474F_15H5
144.11,12.7873,46.3837,1.46143,0.699714,4.60555,29.2718,U1474F_15H6
144.43,12.5579,46.2698,1.33861,0.666827,4.13706,30.2392,U1474F_15H6
144.76,12.0909,46.8578,1.3807,0.668348,4.14212,30.0696,U1474A_15H5
145.08,12.6332,46.4075,1.29999,0.655391,4.2998,29.9137,U1474A_15H5
145.43,14.4455,51.3053,1.67563,0.684096,4.77282,22.3261,U1474A_15H6
145.75,13.9654,48.5655,1.2849,0.627227,4.24852,26.518,U1474A_15H6
146.07,13.2667,49.0081,1.26885,0.613842,3.83507,27.2169,U1474A_15H6
146.41,13.22,48.1051,1.2285,0.610947,4.10726,27.9376,U1474A_15H6
146.74,13.3064,49.8024,1.83285,0.763029,5.51187,23.9929,U1474E_6H2
147.06,12.3145,48.4844,1.6637,0.723381,4.91806,27.1054,U1474E_6H2
147.38,12.721,48.0914,1.59876,0.739683,5.29327,26.7654,U1474E_6H2
147.7,12.4366,48.0278,1.66941,0.753968,5.2362,27.0854,U1474E_6H2
148.06,12.527,48.4297,1.61151,0.745645,4.86393,27.0317,U1474E_6H3
148.38,13.1159,48.3599,1.7014,0.725087,5.65508,25.6521,U1474E_6H3
148.7,12.7007,47.1376,1.48418,0.72606,4.70907,28.4519,U1474E_6H3
149.02,12.7587,47.9745,1.43403,0.706064,4.82933,27.5069,U1474E_6H3
149.34,12.3938,47.724,1.43232,0.718128,4.775,28.1662,U1474E_6H3
149.68,12.6904,48.0297,1.47855,0.689341,4.69547,27.626,U1474E_6H4
150.0,12.575,47.3321,1.4163,0.686908,4.63976,28.5594,U1474E_6H4
150.32,13.2093,47.9939,1.49096,0.70136,4.78407,27.0299,U1474E_6H4
150.64,12.5492,48.8201,1.53388,0.725099,4.67559,26.9056,U1474E_6H4
150.99,13.2103,48.6538,1.64404,0.73717,4.78087,26.1833,U1474E_6H5
151.3,13.8528,47.7634,1.68137,0.747302,5.82534,25.3393,U1474F_16H4
151.62,13.38,48.031,1.5861,0.739596,5.20486,26.2679,U1474F_16H4
151.94,13.8249,48.8025,1.7749,0.754513,5.59244,24.4602,U1474F_16H4
152.26,13.6703,49.3975,1.81467,0.747281,5.56775,24.0119,U1474F_16H4
152.62,12.9942,48.0468,1.48672,0.718832,4.47622,27.4867,U1474F_16H5
152.94,13.9898,50.3651,2.04398,0.796327,6.14379,21.8704,U1474F_16H5
153.3,12.309,56.9863,1.44132,0.687713,4.53871,19.2464,U1474F_16H5
153.62,14.3071,50.0041,1.99114,0.829026,5.95346,22.1247,U1474F_16H5
153.94,13.7486,49.612,1.80584,0.765781,5.44569,23.8315,U1474F_16H5
154.3,13.4054,48.9831,1.59097,0.712496,4.99416,25.5233,U1474F_16H6
154.63,13.088,47.4636,1.41697,0.698171,4.70603,27.8367,U1474A_16H5
154.95,12.9559,47.9103,1.52016,0.712742,5.05613,27.0542,U1474A_16H5
155.27,13.4132,48.0138,1.57897,0.732029,5.32172,26.1498,U1474A_16H5
155.6,11.6873,59.5505,1.51677,0.816605,4.20533,17.433,U1474A_16H6
155.92,13.6019,49.5108,1.89789,0.756378,6.07663,23.3659,U1474A_16H6
156.24,14.5564,50.4612,2.18328,0.800835,6.39811,20.8096,U1474E_7H2
156.56,13.6339,49.7869,1.9849,0.778716,5.45321,23.5719,U1474E_7H2
156.88,14.354,51.6918,2.24707,0.814211,6.00257,20.0998,U1474E_7H2
157.2,14.0267,49.5955,1.88486,0.780845,5.86695,23.0546,U1474E_7H2
157.52,14.2966,50.5596,1.98084,0.76229,5.8673,21.7429,U1474E_7H3
157.84,14.1988,52.1197,2.24668,0.763199,5.46497,20.4161,U1474E_7H3
158.16,14.0299,50.1227,1.79381,0.788301,5.52334,22.9514,U1474E_7H3
158.48,14.1642,49.8392,1.90812,0.770421,5.80516,22.7224,U1474E_7H3
158.84,14.0966,49.5377,1.76939,0.742464,4.82456,24.2387,U1474E_7H4
159.16,13.4967,47.4713,1.3662,0.667223,4.51349,27.6945,U1474E_7H4
159.48,13.2492,47.9154,1.46493,0.695137,4.66432,27.2205,U1474E_7H4
159.8,13.1095,48.6143,1.57198,0.693018,4.94997,26.2707,U1474E_7H4
160.12,13.2333,47.8586,1.44384,0.690434,4.71457,27.2687,U1474E_7H4
160.46,13.6101,49.6141,1.72117,0.726744,5.01405,24.5233,U1474E_7H5
160.78,13.6518,51.9522,1.85355,0.762761,5.12992,21.8592,U1474E_7H5
161.1,12.863,47.7636,1.73071,0.792713,5.68705,26.3723,U1474E_7H5
161.42,14.311,49.7318,1.78793,0.724428,5.00699,23.6473,U1474E_7H5
161.74,13.6098,51.1744,2.06396,0.740614,5.3976,22.2231,U1474E_7H6
162.06,12.8948,48.7501,1.49684,0.690098,4.76633,26.6113,U1474E_7H6
162.38,14.6662,50.6722,2.11985,0.776728,6.09755,20.8769,U1474E_7H6
162.7,13.8023,49.2702,1.60866,0.688443,4.40275,25.4372,U1474F_17H5
163.02,13.063,48.1685,1.43617,0.713056,4.74491,27.0839,U1474F_17H5
163.34,13.7397,48.2091,1.47065,0.709033,4.58372,26.4973,U1474F_17H5
163.66,13.3507,47.9232,1.47322,0.72167,4.74763,26.9931,U1474F_17H5
164.02,12.8063,47.9345,1.32875,0.683996,4.40854,28.0473,U1474F_17H6
164.34,13.4715,48.0784,1.43054,0.68975,4.53235,27.0069,U1474F_17H6
164.66,12.7423,49.1104,1.39126,0.696247,4.5813,26.688,U1474F_17H6
164.98,13.4371,50.0104,1.47828,0.703157,4.41715,25.1634,U1474F_17H6
165.3,13.2912,49.7392,1.63515,0.751122,5.25855,24.5342,U1474E_8H2
165.62,13.0068,46.8307,1.42275,0.70337,4.62022,28.6256,U1474E_8H2
165.94,12.5754,47.3472,1.37246,0.715587,4.65244,28.5464,U1474E_8H2
166.26,13.0983,46.4324,1.38692,0.70955,4.59338,28.9889,U1474E_8H2
166.61,12.825,46.9028,1.33052,0.680993,4.9995,28.4707,U1474E_8H3
166.93,12.8189,46.7686,1.23396,0.674752,4.31003,29.4032,U1474E_8H3
167.25,13.4982,47.8579,1.44303,0.711597,4.59882,27.0999,U1474E_8H3
167.57,13.4329,47.7148,1.4908,0.680561,4.62138,27.2691,U1474E_8H3
167.89,12.63,46.2806,1.25073,0.692928,4.25909,30.0961,U1474E_8H3
168.22,13.3977,48.243,1.50063,0.712854,4.59994,26.7553,U1474E_8H4
168.54,13.1617,48.0058,1.40446,0.708299,4.32946,27.5997,U1474E_8H4
168.86,10.5222,49.7033,0.685768,0.565157,3.71337,30.0196,U1474E_8H4
169.18,13.6505,47.6978,1.5203,0.723291,5.09194,26.5255,U1474E_8H4
169.54,13.2734,49.558,1.5318,0.725969,4.55685,25.5635,U1474E_8H5
169.86,13.134,44.4691,1.14318,0.636767,3.95707,31.8694,U1474E_8H5
170.18,12.2881,45.012,1.12183,0.646337,4.06044,32.0807,U1474E_8H5
170.5,12.6842,45.8061,1.2629,0.678821,4.84432,29.9331,U1474E_8H5
170.82,12.4224,45.9006,1.26822,0.709256,4.46823,30.4407,U1474E_8H5
171.18,13.2283,48.197,1.55321,0.714236,5.41836,26.0983,U1474E_8H6
171.5,13.0402,47.4623,1.25094,0.671786,4.70013,28.084,U1474E_8H6
171.82,12.9259,48.805,1.46231,0.709349,5.06113,26.2459,U1474E_8H6
172.13,13.9291,49.0466,1.49729,0.738019,5.44152,24.557,U1474F_18H3
172.45,13.421,48.5534,1.53343,0.721957,4.77367,26.206,U1474F_18H3
172.79,13.3536,47.2474,1.35174,0.697251,4.92907,27.6304,U1474F_18H4
173.11,12.9391,47.6543,1.28208,0.6792,4.87716,27.7776,U1474F_18H4
173.43,13.5195,47.5976,1.46728,0.690029,5.65696,26.278,U1474F_18H4
173.75,13.523,46.1216,1.16475,0.648215,4.62089,29.131,U1474F_18H4
174.07,12.9427,47.409,1.28101,0.674266,4.25502,28.6474,U1474F_18H4
174.41,13.4705,49.1865,1.55143,0.726237,5.60073,24.6741,U1474F_18H5
174.73,12.999,48.0262,1.27405,0.703594,4.92023,27.2864,U1474F_18H5
175.07,13.6555,47.3315,1.37543,0.691499,4.64437,27.5112,U1474F_18H5
175.4,11.9602,47.9233,1.1326,0.657758,4.30619,29.2295,U1474A_18H5
175.72,13.2868,48.0125,1.2769,0.672002,4.83798,27.1233,U1474A_18H5
176.03,13.91,48.0765,1.14885,0.612924,4.61835,26.8429,U1474E_9H1
176.37,12.6667,45.1954,1.171,0.664069,4.52498,30.9873,U1474E_9H2
176.69,12.6771,44.3376,1.09902,0.638036,4.37516,32.0825,U1474E_9H2
177.01,12.4345,45.1849,1.13637,0.665291,4.48609,31.3023,U1474E_9H2
177.33,12.7643,45.4459,1.20556,0.669966,5.37067,29.7531,U1474E_9H2
177.65,12.7885,43.8031,1.02483,0.61728,4.19779,32.7779,U1474E_9H2
178.01,11.396,63.0971,1.19305,0.584855,3.93944,14.999,U1474E_9H3
178.33,12.5552,46.284,1.17076,0.630829,4.13373,30.4349,U1474E_9H3
178.65,13.1985,46.913,1.25778,0.699475,5.0019,28.1388,U1474E_9H3
178.97,11.8742,44.9501,1.09988,0.617572,4.75855,31.9092,U1474E_9H3
179.32,13.0892,46.0591,1.25109,0.683276,4.68766,29.4392,U1474E_9H4
179.64,12.9098,45.8811,1.22806,0.634053,4.59209,29.9643,U1474E_9H4
179.96,12.6463,45.6517,1.13742,0.655373,4.43716,30.6815,U1474E_9H4
180.28,12.5208,46.3145,1.22194,0.661643,4.34493,30.1457,U1474E_9H4
180.6,12.881,45.8458,1.11208,0.658393,4.4564,30.2557,U1474F_19H2
180.96,12.7381,48.4581,1.29631,0.701035,4.41533,27.6006,U1474F_19H3
181.28,12.6259,49.088,1.52784,0.7211,5.90034,25.3464,U1474F_19H3
181.6,12.6672,44.9217,1.0096,0.618921,3.74352,32.2485,U1474F_19H3
181.92,12.8305,46.1889,1.2506,0.65417,4.56104,29.7243,U1474F_19H3
182.24,12.4904,46.7821,1.27265,0.679232,4.40699,29.5781,U1474F_19H3
182.61,12.9568,44.0988,1.10543,0.633982,4.52557,31.8889,U1474F_19H4
182.93,12.1952,44.3533,1.11003,0.645732,4.03154,32.8736,U1474F_19H4
183.25,12.0856,44.9502,1.06262,0.660148,4.0853,32.3656,U1474F_19H4
183.57,12.9796,45.2853,1.1021,0.62084,3.97683,31.2448,U1474F_19H4
183.93,12.1708,47.2615,1.02603,0.619167,3.96295,30.1691,U1474F_19H5
184.25,12.5073,47.3834,1.2205,0.670711,4.21033,29.2173,U1474F_19H5
184.57,12.876,47.1614,1.25666,0.638504,4.83202,28.4448,U1474F_19H5
184.89,12.7042,47.5176,1.25241,0.658377,4.53518,28.5417,U1474E_10F1
185.21,12.1831,45.9969,1.17489,0.668265,4.50827,30.6781,U1474E_10F1
185.53,12.2025,44.5055,1.03304,0.615596,3.91996,32.9329,U1474E_10F1
185.85,12.2244,47.7957,1.13178,0.686017,4.24815,29.1233,U1474E_10F1
186.17,12.2468,46.2941,1.24595,0.667342,4.98662,29.7686,U1474E_10F1
186.53,12.5207,46.0592,1.18593,0.656884,4.38975,30.397,U1474E_10F2
186.85,12.3266,46.0072,1.16128,0.603557,4.13555,30.9753,U1474E_10F2
187.17,12.5379,45.3473,1.12404,0.621567,4.47961,31.0991,U1474E_10F2
187.49,12.3792,43.9445,1.04097,0.619396,4.12598,33.0994,U1474E_10F2
187.81,12.7813,46.1685,1.19273,0.619407,4.34231,30.1053,U1474F_20H1
188.13,12.8078,45.6725,1.04769,0.632202,4.13253,30.9168,U1474F_20H1
188.45,13.4407,45.2729,1.13996,0.606853,6.88768,27.8614,U1474F_20H1
188.77,13.5258,48.4895,1.44307,0.703291,5.02683,26.021,U1474F_20H1
189.13,13.7822,48.3555,1.56043,0.695185,5.73541,25.0807,U1474F_20H2
189.45,13.8234,46.9559,1.41383,0.677389,4.86575,27.4732,U1474F_20H2
189.77,12.7625,44.9056,1.09039,0.616452,4.48336,31.3511,U1474F_20H2
190.09,12.8751,44.591,1.11307,0.614488,4.19254,31.8233,U1474F_20H2
190.41,13.5456,45.554,1.26717,0.659446,4.40438,29.7789,U1474F_20H2
190.77,12.9275,46.4607,1.1999,0.659621,4.24417,29.7175,U1474F_20H3
191.09,12.1331,46.1368,1.17382,0.664808,5.06296,30.0379,U1474F_20H3
191.41,12.4088,47.393,1.23451,0.665305,3.99947,29.5084,U1474F_20H3
191.73,10.7621,62.7184,1.27539,0.57937,3.76658,16.1077,U1474A_20H1
192.13,13.2104,47.0549,1.25898,0.669765,4.84728,28.1681,U1474A_20H2
192.45,14.206,47.3497,1.4294,0.685901,5.27823,26.2603,U1474A_20H2
192.77,14.2943,49.1691,1.58922,0.725697,5.62112,23.81,U1474A_20H2
193.09,13.3023,50.188,1.51028,0.706349,4.68964,24.813,U1474A_20H2
193.41,13.183,48.3493,1.45331,0.678372,6.05572,25.4898,U1474A_20H2
193.77,12.2084,43.7164,1.06155,0.588647,3.88285,33.7516,U1474A_20H3
194.09,13.5299,48.8722,1.58099,0.718069,5.71179,24.7965,U1474A_20H3
194.41,12.6898,45.9982,1.07865,0.641366,4.46504,30.3364,U1474A_20H3
194.73,13.3147,47.383,1.36587,0.684193,5.23561,27.226,U1474A_20H3
195.06,14.0416,46.4987,1.43919,0.699394,5.32388,27.2067,U1474A_20H4
195.39,12.6621,45.331,1.11873,0.600474,4.12946,31.3677,U1474A_20H4
195.7,13.2606,46.5826,1.34691,0.661068,5.10578,28.2525,U1474A_20H4
196.02,12.1595,47.861,1.22521,0.685327,4.66743,28.611,U1474A_20H4
196.34,12.6982,44.8622,1.12674,0.629723,4.21853,31.674,U1474A_20H4
196.7,12.1014,46.1017,1.10234,0.626265,4.31714,30.9606,U1474A_20H5
197.02,13.2297,48.2384,1.25622,0.682951,4.73386,27.0683,U1474A_20H5
197.33,12.3049,45.9704,1.22257,0.650374,4.4691,30.5921,U1474A_20H5
197.66,12.2563,48.0483,1.26288,0.656572,4.15265,28.8327,U1474A_20H5
197.98,12.5456,47.9707,1.30947,0.693909,4.72804,27.9618,U1474A_20H5
198.4,14.9108,49.5693,1.4633,0.639427,5.12602,23.5006,U1474A_20H6
198.71,13.3502,47.3296,1.07565,0.561466,3.78932,29.1033,U1474A_20H6
199.03,12.2436,47.2427,1.24616,0.653286,4.35367,29.47,U1474F_21H1
199.35,13.2407,51.4859,1.79586,0.746586,5.19149,22.749,U1474F_21H1
199.7,13.1743,46.1626,1.33682,0.665996,4.8946,28.9751,U1474F_21H2
200.02,13.096,47.2192,1.32028,0.680887,4.92682,27.9662,U1474F_21H2
200.34,13.0299,46.9921,1.36182,0.678736,5.08326,28.0637,U1474F_21H2
200.66,13.5721,46.265,1.39554,0.681349,5.13661,28.1589,U1474F_21H2
200.98,13.0367,46.4289,1.35876,0.675415,4.75373,28.956,U1474F_21H2
201.34,12.7415,46.1167,1.22773,0.655991,4.56989,29.8976,U1474F_21H3
201.66,12.3142,45.7321,1.14183,0.6428,4.28992,31.0887,U1474F_21H3
201.98,13.3706,47.7469,1.30387,0.704532,4.79338,27.2901,U1474F_21H3
202.3,13.7351,48.5394,1.55394,0.71695,5.77392,24.8902,U1474F_21H3
202.62,12.8384,47.8768,1.39438,0.702066,5.21968,27.1781,U1474F_21H3
202.98,12.8139,47.9747,1.29477,0.694284,4.95966,27.4722,U1474F_21H4
203.3,12.805,48.8928,1.47629,0.714105,5.10324,26.218,U1474F_21H4
203.62,13.3979,48.8737,1.55098,0.721457,5.31578,25.3496,U1474F_21H4
203.94,14.518,51.18,1.35491,0.672673,4.72616,22.7577,U1474A_21H1
204.26,14.3442,48.5396,1.24803,0.645835,4.66299,25.7688,U1474A_21H1
204.58,14.7355,47.3509,1.16431,0.6154,4.8681,26.4753,U1474A_21H1
204.95,14.0148,48.6813,1.27252,0.633269,4.50801,26.0996,U1474A_21H2
205.27,13.8057,47.5199,1.18395,0.61871,4.60294,27.4782,U1474A_21H2
205.59,13.3075,48.3951,1.12694,0.629763,4.27585,27.4743,U1474A_21H2
205.91,14.2573,48.6468,1.3099,0.648854,4.5724,25.7743,U1474A_21H2
206.23,14.4561,49.512,1.40838,0.664542,5.34842,23.82,U1474A_21H2
206.6,13.798,48.7814,1.18451,0.631359,4.5051,26.3091,U1474A_21H3
206.92,13.9599,49.608,1.2418,0.639814,4.77985,24.9801,U1474A_21H3
207.24,14.0567,49.1104,1.36597,0.664304,5.10527,24.9068,U1474A_21H3
207.56,13.759,48.7834,1.25058,0.618635,4.18851,26.6093,U1474A_21H3
207.92,13.6289,47.9439,1.09994,0.592187,4.17498,27.7696,U1474A_21H4
208.24,12.7593,46.4089,1.35745,0.731398,5.36952,28.5829,U1474E_14F1
208.56,13.2371,47.4352,1.57632,0.762607,5.84751,26.3507,U1474E_14F1
208.88,12.7289,45.2432,1.16704,0.677509,5.33417,30.0586,U1474E_14F1
209.2,12.9322,46.5126,1.33741,0.707853,5.38062,28.3387,U1474E_14F1
209.56,14.3235,48.3481,1.2336,0.627301,4.76791,25.9091,U1474E_14F2
209.88,13.6558,47.1119,1.06865,0.614359,4.41064,28.3481,U1474E_14F2
210.2,14.7017,49.3997,1.37665,0.655444,5.11909,23.9569,U1474E_14F2
210.52,14.1012,48.8414,1.27127,0.627035,4.29403,26.0746,U1474E_14F2
210.88,14.4439,49.3984,1.49045,0.688205,5.61607,23.5725,U1474E_14F3
211.2,15.031,50.1127,1.36801,0.672777,5.04562,22.9793,U1474E_14F3
211.52,13.3411,49.0137,1.22236,0.616421,4.09572,26.9201,U1474E_14F3
211.86,15.5537,51.1646,1.68997,0.700487,5.15177,20.949,U1474E_14F4
212.18,15.0626,50.0817,1.36769,0.67831,5.19547,22.8237,U1474E_14F4
212.5,14.3202,47.2154,1.17329,0.603703,4.18756,27.7093,U1474F_23F1
212.82,14.8375,49.5627,1.51481,0.690905,5.26128,23.3423,U1474F_23F1
213.14,14.2852,48.4849,1.17489,0.645371,5.20338,25.4157,U1474F_23F1
213.46,14.5412,50.0727,1.39644,0.652811,4.54272,24.0035,U1474F_23F1
213.82,13.1106,47.0196,1.24971,0.684968,4.93553,28.209,U1474F_23F2
214.14,13.0148,45.5328,1.12199,0.637226,4.72605,30.1766,U1474F_23F2
214.46,13.2475,46.1935,1.24146,0.660244,4.81716,29.0497,U1474F_23F2
214.78,12.703,44.8697,1.07691,0.615653,4.38993,31.5543,U1474F_23F2
215.1,13.3355,45.0023,1.14087,0.625384,4.37681,30.7286,U1474F_23F2
215.44,13.1085,46.6867,1.28698,0.671165,4.64691,28.8092,U1474F_23F3
215.76,13.4323,48.347,1.45479,0.713113,5.11582,26.1464,U1474F_23F3
216.25,12.8012,47.5397,1.20817,0.672905,4.84981,28.1377,U1474A_22H2
216.57,13.5553,47.5966,1.3428,0.680785,5.01079,27.0232,U1474A_22H2
216.89,13.1237,48.034,1.26804,0.659587,4.24954,27.8746,U1474A_22H2
217.21,14.2951,48.7572,1.43666,0.725654,5.47071,24.5241,U1474A_22H2
217.56,12.699,48.8125,1.18895,0.634238,3.88434,27.9904,U1474A_22H3
217.88,13.0048,50.1057,1.69133,0.726752,7.15318,22.5277,U1474E_16F1
218.2,13.4266,48.0291,1.39794,0.681077,5.05798,26.6167,U1474E_16F1
218.56,13.1127,45.7483,1.11445,0.626344,4.57166,30.036,U1474E_16F2
218.88,13.3272,46.1938,1.21509,0.637871,5.16937,28.6662,U1474E_16F2
219.2,12.7367,47.0106,1.19493,0.653579,4.53625,29.0773,U1474E_16F2
219.52,13.3424,48.0114,1.30911,0.684001,4.8626,27,U1474E_16F2
219.84,13.3384,47.2485,1.22359,0.67195,5.52516,27.2018,U1474E_16F2
220.2,13.4443,46.0367,1.22099,0.653912,4.82069,29.0329,U1474E_16F3
220.52,13.3036,45.3468,1.09576,0.62506,4.31365,30.5245,U1474E_16F3
220.84,13.2792,46.2403,1.14505,0.653005,5.01294,28.8789,U1474E_16F3
221.18,13.0206,44.8624,1.08359,0.623945,4.44232,31.1765,U1474E_16F4
221.5,12.3132,43.6715,0.966883,0.574564,3.82041,33.8629,U1474E_16F4
225.53,13.1372,43.8525,0.967433,0.574879,3.45009,33.2274,U1474F_26F2
225.85,12.8846,44.4374,1.02126,0.602104,3.77499,32.4891,U1474F_26F2
226.17,13.4726,45.8228,1.13296,0.640567,4.60868,29.5319,U1474F_26F2
226.49,12.5776,45.0829,1.07708,0.620754,4.07835,31.7728,U1474F_26F2
227.47,12.9473,43.882,1.03676,0.594473,4.01837,32.7305,U1474E_18F1
227.83,13.6973,46.5748,1.21708,0.681812,4.48052,28.558,U1474E_18F1
228.15,13.217,44.8647,1.05413,0.621506,3.96887,31.4832,U1474E_18F1
228.51,13.2254,44.9445,1.19612,0.639502,4.61619,30.5878,U1474E_18F2
228.83,12.9033,44.9288,1.05557,0.607707,4.23901,31.4751,U1474E_18F2
229.15,13.7472,46.2896,1.25032,0.656762,4.91486,28.3507,U1474E_18F2
229.47,13.7402,47.4186,1.26508,0.646219,4.68561,27.4537,U1474E_18F2
229.83,13.5011,49.9814,1.62152,0.70622,5.34235,24.0568,U1474E_18F3
230.14,12.2959,46.4015,1.07892,0.622431,4.61558,30.1952,U1474F_27F2
230.46,12.9911,49.3506,1.26768,0.657153,4.17963,26.7634,U1474F_27F2
230.78,12.7356,45.7964,1.03359,0.604982,4.29069,30.7482,U1474F_27F2
231.1,14.147,49.6032,1.41987,0.7046,5.28981,24.045,U1474F_27F2
231.42,12.2261,45.6543,1.09061,0.596302,3.6446,31.9975,U1474F_27F2
231.78,12.2827,44.9854,0.957455,0.602102,3.9726,32.4092,U1474F_27F3
232.1,13.1985,46.4191,1.25865,0.683606,4.85273,28.7969,U1474E_19F1
232.42,12.9464,45.5676,1.18113,0.675188,4.9907,29.8485,U1474E_19F1
232.74,13.0167,45.9414,1.12822,0.655182,4.51501,29.953,U1474E_19F1
233.1,13.143,46.3417,1.28429,0.677305,4.74306,29.0201,U1474E_19F2
233.42,11.1921,51.8472,0.824061,0.535264,3.77539,27.0354,U1474E_19F2
233.74,14.1109,49.3685,1.5612,0.728824,5.51816,23.9218,U1474E_19F2
234.05,13.2044,50.4617,1.63941,0.752757,5.17604,23.9752,U1474F_28F1
234.37,13.065,48.4538,1.24182,0.688033,4.82764,26.9331,U1474F_28F1
234.73,13.9728,49.8051,1.58333,0.709716,5.27751,23.861,U1474F_28F2
236.37,12.6962,47.2818,1.15184,0.632325,4.52337,28.9238,U1474F_28F3
236.69,13.0117,47.2107,1.26083,0.672636,5.18921,27.8644,U1474F_28F3
237.06,13.0926,46.2977,1.11142,0.623338,4.38409,29.7004,U1474F_28F4
237.38,13.4793,48.2153,1.22028,0.655358,4.62635,27.0129,U1474F_28F4
237.7,13.5234,47.072,1.23654,0.648579,4.68298,28.046,U1474F_28F4
241.08,14.2742,50.3482,1.29382,0.653503,4.37156,24.2682,U1474F_29F2
241.4,14.4724,50.1579,1.28898,0.644888,4.73994,23.9053,U1474F_29F2
241.72,13.0016,48.4718,1.03944,0.597813,4.22078,27.878,U1474F_29F2
242.04,14.0349,47.6957,1.12711,0.608657,4.74419,26.999,U1474F_29F2
242.36,13.3269,49.2057,1.1259,0.611199,3.96539,26.9744,U1474F_29F2
242.69,14.4643,50.7611,1.33166,0.667318,4.6528,23.3323,U1474F_29F3
243.01,13.8881,49.4684,1.12151,0.6196,4.14409,25.9678,U1474F_29F3
243.33,15.2739,51.5292,1.53526,0.684106,5.40086,20.7861,U1474F_29F3
243.66,14.1275,49.4327,1.58522,0.74326,5.50663,23.8142,U1474F_29F4
243.98,13.9672,51.2971,1.45754,0.666374,4.87392,22.9473,U1474A_25H2
244.3,13.1655,49.6338,1.17173,0.636717,4.20138,26.4004,U1474A_25H2
244.65,12.121,49.4978,1.29784,0.696487,4.51767,27.0787,U1474A_25H3
244.97,11.8288,45.7518,1.05324,0.627005,4.45257,31.4961,U1474A_25H3
245.29,12.379,45.289,1.10498,0.643618,4.51548,31.2775,U1474A_25H3
245.61,11.8368,44.3024,0.930475,0.585532,3.89161,33.6627,U1474A_25H3
245.93,12.589,45.5071,1.10759,0.633599,4.57193,30.8002,U1474A_25H3
246.29,12.2533,46.5301,1.1776,0.657374,4.37866,30.2124,U1474A_25H4
246.6,12.2821,47.5198,1.15326,0.652705,4.6194,28.9821,U1474F_30F1
246.92,13.6912,47.744,1.39849,0.687236,5.04881,26.6397,U1474F_30F1
247.24,13.412,48.8319,1.56922,0.722431,6.02172,24.6522,U1474F_30F1
247.58,13.3643,47.9962,1.3424,0.682284,5.47104,26.3532,U1474F_30F2
247.9,12.7949,48.5927,1.35631,0.666998,4.45276,27.3457,U1474F_30F2
248.22,12.713,45.7064,1.01243,0.616614,4.34819,30.8128,U1474F_30F2
248.54,13.8766,49.1666,1.43842,0.696286,5.40715,24.6244,U1474F_30F2
248.9,13.4828,47.8924,1.31419,0.665796,4.65874,27.1955,U1474F_30F3
249.22,12.4428,49.2065,1.20152,0.671432,4.43378,27.2535,U1474F_30F3
249.56,13.3844,48.6191,1.34713,0.700738,4.58999,26.568,U1474F_30F3
249.91,13.572,47.8456,1.33201,0.692481,4.52887,27.2385,U1474F_30F4
250.23,13.5654,48.4725,1.35427,0.708506,4.63775,26.4711,U1474F_30F4
250.37,13.1081,48.2403,1.36872,0.715816,4.72518,27.0514,U1474F_30F4